#time,accel_x,accel_y,accel_z
0.000000,27.646735,-24.172189,9744.939995
0.000313,95.194754,-16.964155,9934.347167
0.000625,85.389416,-66.990463,9840.423927
0.000937,-15.788000,-163.752583,9810.466266
0.001250,190.421282,4.761942,9916.475244
0.001563,183.246227,6.151575,9779.198381
0.001875,134.135759,-32.458004,9630.066553
0.002188,253.146613,-95.565046,9778.109773
0.002500,265.394557,-226.195452,9888.387376
0.002812,289.334473,62.330129,9821.160375
0.003125,297.653308,129.315970,9756.701022
0.003438,368.689796,-3.113430,9759.415970
0.003750,295.604243,98.349811,9908.758923
0.004063,371.047174,-10.955046,9693.842403
0.004375,375.058399,-45.648022,9748.009945
0.004687,491.069166,-86.007546,9666.374965
0.005000,475.855278,-67.213276,9845.140260
0.005313,478.776478,-155.706971,9821.458717
0.005625,469.092259,-140.318528,9839.765801
0.005938,540.514817,63.817672,9593.323615
0.006250,591.157091,-114.953638,9811.434431
0.006562,597.840177,-44.131701,9718.420352
0.006875,752.760280,157.187868,9804.350587
0.007188,759.080847,100.253309,9879.805244
0.007500,490.915476,-71.516786,9833.763778
0.007812,585.907703,-21.379629,9878.639083
0.008125,752.218864,52.826281,9906.858601
0.008438,761.545702,-91.966429,9561.135337
0.008750,841.477963,3.297395,9787.867802
0.009062,870.779987,-76.739702,9731.771482
0.009375,1051.767999,138.494748,9827.617964
0.009687,822.261683,-21.610922,9782.254174
0.010000,909.829989,58.785699,9845.728779
0.010313,1132.204575,121.387453,9857.353221
0.010625,1049.189762,-78.281096,9649.700650
0.010937,1079.092286,-17.150754,9758.389787
0.011250,1013.440216,-184.108847,9909.930956
0.011562,951.144827,-4.146515,9759.810852
0.011875,1124.731527,-79.865159,9828.298390
0.012188,1148.309155,-133.005179,9881.039187
0.012500,1069.560497,-14.696901,9737.230840
0.012812,1141.154888,-39.560065,9783.854504
0.013125,1218.014386,-18.967571,9802.985452
0.013437,1176.059878,104.351626,9573.810468
0.013750,1271.534573,-31.187885,9765.356285
0.014063,1314.681775,84.676490,9798.811933
0.014375,1337.424558,39.322138,9831.958498
0.014687,1321.493179,200.493460,9842.933454
0.015000,1436.796297,25.721388,9805.276946
0.015312,1487.767598,-59.070640,9754.304900
0.015625,1469.194506,-86.105947,9943.374894
0.015938,1404.991996,117.326343,9801.200991
0.016250,1555.774505,-52.306746,9967.710366
0.016563,1483.783929,81.220026,9834.308923
0.016875,1620.750453,5.253171,9818.373620
0.017188,1491.051517,62.858130,9782.698544
0.017500,1676.183997,117.876695,9758.188622
0.017812,1627.505632,-7.304527,9720.229966
0.018125,1555.143638,27.745647,9791.352513
0.018437,1655.709968,87.392248,9781.288490
0.018750,1710.770803,-72.516595,9715.624527
0.019062,1753.725732,-11.208086,9863.174234
0.019375,1678.623082,57.195538,9758.549854
0.019688,1693.736698,74.606264,9782.106390
0.020000,1823.251224,143.171070,9908.938719
0.020313,1794.728732,-46.911054,9698.071334
0.020625,1875.516532,-93.272318,9886.045983
0.020938,1941.864993,-151.761305,9824.037144
0.021250,1773.444591,-52.307947,9788.914753
0.021562,1949.756422,-36.014650,10004.865103
0.021875,2051.245417,66.917327,9767.866952
0.022187,1953.147152,-157.350776,9814.784688
0.022500,1935.563997,-21.648730,9991.457808
0.022812,2083.889637,103.632992,9719.141768
0.023125,2067.064811,84.030641,9795.084916
0.023438,2141.333587,-106.394099,9795.294630
0.023750,2064.711341,-29.316966,9748.621174
0.024063,1996.237521,-120.587567,9699.680527
0.024375,2128.222172,57.187070,9662.527205
0.024688,2123.379443,-40.436893,9777.162963
0.025000,2242.873839,94.592045,9915.779236
0.025313,2217.917348,130.521137,9857.679765
0.025625,2093.311109,-72.675301,9690.660714
0.025937,2149.288872,-1.264218,9651.848347
0.026250,2336.495475,1.910358,9722.826547
0.026562,2340.828585,-30.142402,9943.210917
0.026875,2255.644593,-28.764281,9701.378718
0.027187,2326.955553,-20.621732,9844.340364
0.027500,2382.616534,2.776236,9729.590056
0.027813,2404.127089,156.154001,9701.518288
0.028125,2456.188230,-84.258890,9723.656977
0.028438,2425.788974,125.314447,9812.559883
0.028750,2416.609439,56.862137,9771.228899
0.029063,2422.154933,-54.890626,9797.330014
0.029375,2545.727957,6.466939,9691.600861
0.029687,2299.341847,83.733492,9888.327643
0.030000,2486.192555,22.239855,9915.847748
0.030312,2517.530176,36.497944,9674.749404
0.030625,2418.195110,-3.689414,9792.035854
0.030937,2575.905950,-71.704488,9843.557693
0.031250,2513.958513,-4.562056,9828.523768
0.031563,2651.556357,-20.480253,9776.308209
0.031875,2588.730203,-13.715017,9713.734863
0.032188,2668.241037,7.010166,9821.755183
0.032500,2727.859306,50.366691,9780.159768
0.032813,2676.338500,-0.355935,9905.713244
0.033125,2590.705504,74.787930,9810.792792
0.033438,2554.381009,-49.203462,9833.555080
0.033750,2830.262298,52.517208,9854.948190
0.034063,2695.252576,-46.927001,9899.138456
0.034375,2662.932029,5.334491,9733.187671
0.034688,2743.113562,-61.791852,9722.451979
0.035000,2729.507988,-127.841527,9733.955118
0.035312,2825.929965,-124.553999,9999.810314
0.035625,2773.098012,7.897685,9850.936539
0.035937,2783.794100,82.491627,9854.324245
0.036250,2737.521087,66.289153,9812.751871
0.036562,2843.926982,15.041039,9710.138933
0.036875,2735.004816,12.228810,9744.678866
0.037187,2882.014325,68.941990,9800.665757
0.037500,2961.361459,2.202875,9718.443337
0.037812,2727.847047,-100.365255,9797.205741
0.038125,2662.569189,84.025912,9639.150362
0.038437,2918.931527,6.731298,9721.862301
0.038750,3082.792864,62.157820,9905.972624
0.039062,2807.931020,-19.410078,9809.335946
0.039375,2796.655554,-20.782590,9796.895247
0.039688,2952.195288,-94.821975,9714.151588
0.040000,2845.845107,75.673782,9853.259199
0.040313,2880.302547,-70.862787,9811.551010
0.040625,2900.271853,31.908496,9808.693076
0.040938,2977.671258,-101.992258,9740.938284
0.041250,2909.328215,51.209664,9879.107217
0.041563,2970.274154,-56.214834,9694.283375
0.041875,2939.860174,38.292737,9839.623455
0.042188,2891.995053,35.372201,9948.377812
0.042500,2939.213599,46.904660,9731.183178
0.042813,2893.642229,-20.202002,9866.425536
0.043125,2974.711982,108.868828,9786.300658
0.043437,2888.438717,-8.739758,9884.487643
0.043750,2894.712963,12.847398,9874.248035
0.044062,3102.135878,-90.743417,9593.843990
0.044375,2984.395236,44.535505,9687.867670
0.044687,2987.044212,-76.447388,9794.585596
0.045000,3034.619830,-4.328358,9878.772687
0.045312,2962.001869,61.916207,9754.458341
0.045625,2978.992949,-87.445759,9780.444529
0.045937,3032.523778,74.087751,9846.535151
0.046250,3021.970956,89.304829,9873.987531
0.046562,2907.128470,66.185628,9736.283548
0.046875,3066.661893,-40.962394,9774.406027
0.047188,2952.508815,-95.342802,9922.773569
0.047500,2914.632408,137.849770,9882.295995
0.047813,2926.081003,-72.500582,9725.678584
0.048125,2965.500067,-82.325302,9807.087621
0.048438,3125.176080,-30.618387,9761.416643
0.048750,2898.820557,-94.629199,9855.965850
0.049063,3003.163245,33.362976,9870.931557
0.049375,2816.446765,-99.014736,9754.380993
0.049688,2984.084162,71.983469,9751.000495
0.050000,3052.532414,95.430103,9836.962208
0.050313,2957.611964,28.403503,9752.528444
0.050625,2921.794525,71.653328,9832.232543
0.050937,2985.881318,-71.411706,9868.007624
0.051250,3018.209425,43.336207,9826.396309
0.051562,3009.745844,24.518323,9796.644147
0.051875,3108.526018,-69.401743,9742.875148
0.052187,2961.155160,51.896635,9809.893631
0.052500,2890.341305,-76.365243,9945.053015
0.052812,2920.586794,167.787477,9824.666294
0.053125,2917.414947,-47.757901,9744.489885
0.053437,2924.082278,-17.786244,9858.792994
0.053750,2904.768397,44.934638,9827.790582
0.054062,2912.494286,-1.991320,9778.382512
0.054375,2755.934676,45.019323,9972.405806
0.054688,2946.618230,-115.345628,9730.855960
0.055000,2824.533901,174.475578,10035.660700
0.055313,2766.545759,141.261080,9728.478638
0.055625,2900.924684,-83.871414,9878.235193
0.055938,2944.418028,35.352468,9729.939915
0.056250,2867.223321,-15.747053,9671.091672
0.056563,2829.045307,-84.548175,9813.551755
0.056875,2729.569456,54.392055,9775.159549
0.057188,3021.490725,40.126251,9884.025735
0.057500,2849.428790,255.212903,9774.707505
0.057813,2674.732615,135.366408,9671.077296
0.058125,2689.999446,28.429556,9664.985552
0.058438,2745.450244,200.631604,9922.050141
0.058750,2599.862960,-35.800295,9848.268784
0.059062,2723.110592,-10.547257,9903.948245
0.059375,2657.903407,36.666155,9920.287190
0.059687,2777.371167,-11.247986,9873.917363
0.060000,2740.514906,92.484428,9653.386047
0.060312,2430.546604,69.587151,9751.714137
0.060625,2634.327766,-147.711382,9762.159653
0.060937,2484.772873,-56.717745,9884.445298
0.061250,2685.758055,-1.225713,9993.724767
0.061562,2592.891745,24.614153,9771.516310
0.061875,2605.413039,-14.696970,9716.833140
0.062187,2458.070623,116.976527,9924.436510
0.062500,2670.939351,-78.898671,9938.072929
0.062812,2667.301182,-35.273007,9780.131098
0.063125,2401.191834,75.715972,9869.152192
0.063437,2496.526588,37.319153,9670.404225
0.063750,2392.816587,40.454831,9992.979607
0.064062,2424.428076,-118.007355,9787.011254
0.064375,2304.351092,83.276620,9697.263963
0.064687,2533.919617,-71.251946,9819.357098
0.065000,2285.619203,66.173904,9800.801451
0.065312,2317.734279,6.244832,9844.720061
0.065625,2359.471100,95.585107,9634.215160
0.065937,2245.145439,-43.898868,9768.768451
0.066250,2255.071814,-64.010851,9646.693034
0.066562,2206.063220,45.406744,9707.550071
0.066875,2217.088687,-117.078819,9816.661109
0.067187,2110.409326,93.570360,9738.003137
0.067500,2144.979497,-45.230942,9733.646498
0.067812,2139.114155,-132.018439,9909.143073
0.068125,2104.298474,39.190671,9794.154977
0.068437,2110.549370,-39.071689,9870.619395
0.068750,2057.273060,-12.907475,9692.108055
0.069062,2115.377506,147.770603,9833.379461
0.069375,2003.359468,-37.767650,9818.061917
0.069687,1992.075874,0.692438,9797.954615
0.070000,1923.319197,-93.249726,9826.887358
0.070312,1907.578609,-39.215927,9736.937173
0.070625,1821.445819,0.697627,9832.154117
0.070938,1936.724011,81.763247,9870.465386
0.071250,1776.149511,-54.337132,9778.001354
0.071563,1779.929223,44.959542,9906.864505
0.071875,1840.104474,-123.657019,9778.541300
0.072188,1815.061716,-49.140771,9718.207910
0.072500,1722.064836,-90.590403,9957.340997
0.072813,1563.481645,-63.991327,9946.224882
0.073125,1729.347143,-111.472128,9809.909217
0.073438,1686.892208,-9.051253,9746.514091
0.073750,1523.299224,247.343900,9860.061127
0.074063,1667.823326,-109.850693,9842.242121
0.074375,1519.766422,-145.099913,9662.723794
0.074688,1455.169025,-50.355201,9630.098331
0.075000,1522.088884,-78.304817,9827.274820
0.075313,1469.079744,-4.450318,9827.173651
0.075625,1468.258812,-70.140609,9716.934529
0.075938,1292.049138,145.996024,9732.620246
0.076250,1533.720123,-68.835362,9904.026071
0.076563,1308.538510,20.947104,9842.512357
0.076875,1201.368854,82.684332,9701.747314
0.077188,1341.624500,-19.647806,9803.067831
0.077500,1231.097703,42.593602,9829.652860
0.077813,1252.629309,77.336718,9777.453801
0.078125,1166.428594,-98.556726,9854.633895
0.078437,1155.577118,7.862405,9825.713638
0.078750,1146.584138,-2.516235,9794.331943
0.079062,1033.567419,-67.976959,9853.468071
0.079375,1113.792069,-49.794477,9809.619833
0.079687,987.914637,88.234947,9940.384537
0.080000,921.770535,135.894856,9793.857698
0.080312,963.176747,-3.268861,9709.037334
0.080625,958.120599,-21.212621,9938.963184
0.080937,869.533345,76.632388,9857.369040
0.081250,784.044551,-2.925874,9726.687570
0.081562,867.664306,81.531077,9909.611895
0.081875,642.144246,-107.448626,9833.170596
0.082187,665.249189,-107.853654,9910.802622
0.082500,715.491562,58.337875,9772.246387
0.082812,567.925025,-131.133066,9830.938004
0.083125,643.403038,-15.057075,9674.471005
0.083437,601.006913,-93.461382,9793.916493
0.083750,641.411469,30.236676,9945.605786
0.084062,460.334385,23.266938,9679.390617
0.084375,447.344607,12.107170,9686.625388
0.084687,487.870585,-62.255844,9748.740546
0.085000,228.314545,-22.253036,9825.930320
0.085312,636.536543,-27.703242,9727.700708
0.085625,296.169895,46.399857,9768.354257
0.085938,257.124562,-2.824952,9760.895509
0.086250,347.776983,42.339885,9868.162327
0.086563,239.007069,2.318917,9749.929269
0.086875,63.083026,-44.294232,9691.446738
0.087188,218.777544,-35.233519,9791.888991
0.087500,200.187462,-121.229586,9756.984034
0.087813,58.848790,-194.818940,9745.979784
0.088125,35.362654,-91.223091,9676.472606
0.088438,59.780161,36.374887,9885.761811
0.088750,-88.820185,103.313152,9767.349886
0.089063,-18.090071,70.543202,9752.451973
0.089375,-74.279240,-117.598851,9828.884685
0.089688,-181.292583,-101.321707,9876.764865
0.090000,-275.748161,151.265075,9597.498877
0.090313,-219.511971,87.577540,9827.918264
0.090625,-308.576487,2.616345,9897.038218
0.090938,-195.499031,-9.373184,9841.810503
0.091250,-301.138317,-73.910875,9825.084116
0.091563,-287.130031,-140.761078,9803.072514
0.091875,-375.931212,1.515074,9861.407626
0.092188,-402.639741,-44.684072,9906.099467
0.092500,-523.243442,-9.002855,9775.808294
0.092813,-444.046400,-47.534446,9722.625307
0.093125,-391.550084,77.764131,9886.208931
0.093438,-595.879893,103.394148,9824.941781
0.093750,-655.243079,-70.511480,9786.565414
0.094062,-657.095649,103.015131,9801.448921
0.094375,-719.544173,8.274769,9807.016397
0.094687,-773.652638,-6.564376,9764.728695
0.095000,-742.884909,46.696186,9783.466258
0.095312,-813.527522,-25.089124,9854.050630
0.095625,-711.359607,-96.413838,9809.558686
0.095937,-862.564432,6.734853,9830.286070
0.096250,-872.668404,97.858930,9798.451328
0.096562,-858.304173,-1.414256,9761.964974
0.096875,-994.288742,188.307475,9757.903064
0.097187,-890.923522,-130.014918,9846.846717
0.097500,-1091.978003,-83.290638,9794.541025
0.097812,-1141.388581,31.038160,9767.142987
0.098125,-1141.237538,-166.611820,9796.367601
0.098437,-1156.175325,-5.811170,9839.955661
0.098750,-1294.007133,-13.321859,9917.427094
0.099062,-1219.449034,166.927869,9758.454971
0.099375,-1384.610235,47.136558,9844.229213
0.099687,-1174.234233,-51.619984,9709.111798
0.100000,-1326.297266,-144.325763,9842.274338
0.100312,-1405.198616,38.503272,10060.456218
0.100625,-1460.339907,-21.293848,9853.721505
0.100937,-1452.058624,94.598735,9789.712568
0.101250,-1472.576454,76.998248,9939.348992
0.101562,-1571.505589,-33.934048,9846.786005
0.101875,-1594.525782,4.464526,9826.136688
0.102188,-1568.690639,32.669014,9950.506677
0.102500,-1627.924979,46.889709,9791.812525
0.102813,-1543.436238,-173.641431,9722.624660
0.103125,-1559.614240,-41.686512,9758.279044
0.103438,-1681.186568,-68.676823,9759.600802
0.103750,-1676.152753,-101.535337,9776.876592
0.104063,-1852.170580,-91.147591,9757.988100
0.104375,-1725.413521,80.403915,9675.623309
0.104688,-1809.636003,56.580685,9800.142833
0.105000,-1798.923557,-0.632069,9861.595713
0.105313,-1739.895915,73.751491,9702.532818
0.105625,-2080.334502,-98.303932,9687.174893
0.105938,-1906.640029,-13.628747,9910.972480
0.106250,-2044.798403,98.781428,9822.796303
0.106563,-1938.543625,-76.829932,9872.327366
0.106875,-2119.726936,129.596639,9812.081703
0.107188,-2082.722909,161.729439,9795.270119
0.107500,-2054.982505,-36.575743,9750.696488
0.107813,-2049.906531,56.160451,9727.638753
0.108125,-2120.460317,-43.060837,9894.789502
0.108438,-2216.992077,-43.717031,9815.427396
0.108750,-2224.629884,-52.054454,9855.319566
0.109063,-2136.023516,20.098931,9748.433426
0.109375,-2233.309725,121.142077,9713.718019
0.109687,-2393.305360,17.573376,9852.380288
0.110000,-2216.477006,-124.281900,9705.268607
0.110312,-2275.674286,-90.175677,9836.891084
0.110625,-2263.734398,42.670788,9816.266858
0.110937,-2384.795712,-7.964849,9692.330437
0.111250,-2315.490367,31.455371,9842.745489
0.111562,-2490.120112,-25.202475,9968.355262
0.111875,-2382.736828,64.205985,9770.559159
0.112187,-2490.274254,-72.156037,9690.427751
0.112500,-2419.403143,80.567599,9712.438654
0.112812,-2414.802999,7.098955,9772.173379
0.113125,-2575.628209,136.902746,9903.872167
0.113437,-2541.928520,-12.791850,9769.158979
0.113750,-2555.377187,-186.320372,9914.053298
0.114062,-2483.561590,-32.254118,9816.515326
0.114375,-2541.704821,-34.482902,9792.855329
0.114687,-2715.475553,3.482878,9863.691697
0.115000,-2600.273531,-13.219038,9745.296085
0.115312,-2595.784697,88.739146,9615.692460
0.115625,-2503.553702,3.267671,9742.507697
0.115937,-2825.409107,101.804291,9841.678211
0.116250,-2751.153064,22.432126,9677.006426
0.116562,-2618.287680,59.728636,9807.193046
0.116875,-2849.616454,-56.274400,9753.534305
0.117188,-2852.958326,-103.426973,9695.719551
0.117500,-2730.959053,-23.540721,9906.034677
0.117813,-2705.706961,5.162940,9692.393072
0.118125,-2855.054441,-50.834617,9743.736173
0.118438,-2772.253021,85.326156,9788.128329
0.118750,-2819.529405,10.720490,9906.026568
0.119063,-2720.324644,68.956286,9949.389300
0.119375,-2854.397636,165.719207,9795.424376
0.119688,-2787.017646,96.531336,9915.967614
0.120000,-2949.954706,15.302514,9876.012507
0.120313,-2903.466987,49.150895,9729.884692
0.120625,-2906.885051,36.837894,9745.020905
0.120938,-2817.989828,14.271160,9765.626576
0.121250,-2872.214162,79.988018,9810.016856
0.121563,-2987.680474,10.908419,9758.158148
0.121875,-2881.429483,-64.320038,9905.449021
0.122188,-2882.270215,25.214610,9791.336974
0.122500,-2960.270877,-2.796458,9743.820162
0.122813,-2978.853036,13.628548,9890.724113
0.123125,-2980.125199,34.436476,9764.367324
0.123438,-3106.079093,-6.555004,9741.328361
0.123750,-2960.714798,20.596099,9920.260610
0.124063,-2961.856312,108.663065,9858.534854
0.124375,-3054.144988,-113.923546,9763.311533
0.124688,-2929.257193,6.796307,9859.702816
0.125000,-3101.708725,-94.536832,9745.646547
0.125312,-3038.701522,-97.812999,9808.475396
0.125625,-3034.724246,73.434167,9819.236262
0.125938,-2839.319802,-199.350043,9962.251391
0.126250,-3127.331462,27.093184,9991.434869
0.126562,-2954.923479,60.180138,9790.504363
0.126875,-2924.561044,-126.358960,9801.476920
0.127188,-2969.168637,-78.449343,9870.558553
0.127500,-2903.755615,-13.559441,9745.962377
0.127812,-3076.889745,-8.739932,9842.686169
0.128125,-3176.918030,23.151722,9887.943951
0.128438,-2930.433970,-132.760887,9733.740368
0.128750,-3084.182580,-30.255161,9900.516664
0.129062,-3010.819625,-72.889946,9960.584644
0.129375,-3074.660623,11.273622,9855.813217
0.129688,-2891.264622,-41.562463,9882.088998
0.130000,-2900.792520,114.894121,9704.801146
0.130312,-3021.615661,78.316990,9867.500004
0.130625,-2885.190738,-20.543390,9830.059831
0.130938,-2940.681039,53.246730,9857.264286
0.131250,-2953.901307,-20.899546,9845.966737
0.131562,-2929.978032,161.169493,9847.073368
0.131875,-2942.067103,-90.944555,9703.000816
0.132188,-2867.377690,184.188066,9820.468781
0.132500,-2881.937080,-147.192016,9717.006916
0.132812,-2924.365607,-75.390385,9727.019878
0.133125,-2805.008560,-85.163094,9751.818351
0.133437,-2922.986255,77.845546,9886.519149
0.133750,-2839.132176,-30.316016,9821.215778
0.134063,-2815.793756,81.605304,9679.327102
0.134375,-2718.202882,162.345021,9739.538829
0.134687,-2863.347354,2.600283,9838.911359
0.135000,-2669.334886,90.387448,9882.991748
0.135313,-2780.024170,-19.806489,9781.902261
0.135625,-2794.439568,-51.548473,9807.915332
0.135937,-2816.993273,-53.498059,9742.714320
0.136250,-2700.037938,8.454961,9865.284013
0.136563,-2726.246512,125.600005,9652.577940
0.136875,-2801.146102,-32.233264,9964.866325
0.137187,-2785.262732,-26.888850,9758.152709
0.137500,-2721.128422,4.844260,9872.866800
0.137813,-2711.905698,-12.013517,9757.570839
0.138125,-2551.225143,102.924475,9745.114277
0.138437,-2508.518863,-104.494176,9702.964576
0.138750,-2528.681021,20.544920,9833.142090
0.139063,-2548.634322,216.715269,9645.427376
0.139375,-2590.118122,-63.650202,9984.191927
0.139687,-2529.595953,106.635523,9891.315103
0.140000,-2440.777135,54.191880,9835.617986
0.140313,-2318.181878,-74.061477,9779.049759
0.140625,-2392.244003,96.776984,9826.497102
0.140937,-2463.839064,-61.723452,9844.976628
0.141250,-2414.011767,-2.522780,9732.160299
0.141563,-2430.826339,-14.020451,9994.119392
0.141875,-2429.508768,-40.376822,9789.403674
0.142187,-2355.879515,-56.763422,9801.198649
0.142500,-2299.247472,-42.323978,9813.227927
0.142813,-2141.318419,-40.889853,9812.754152
0.143125,-2256.863546,52.272911,9798.228036
0.143437,-2124.819189,14.242939,9718.305178
0.143750,-2063.940994,-49.958013,9780.707584
0.144063,-2170.522974,-69.735341,9880.663654
0.144375,-2019.251081,-63.160057,9744.261832
0.144687,-2061.292261,-100.704951,9775.754802
0.145000,-2122.071643,20.725374,9755.015802
0.145313,-2037.210782,-11.908472,9789.553813
0.145625,-2025.931074,-13.423042,9830.215074
0.145937,-2015.269502,-168.450751,9841.574623
0.146250,-1981.096236,-4.885426,10006.129981
0.146563,-1921.764042,-0.268513,9784.476885
0.146875,-1866.274545,-48.470256,9730.691715
0.147187,-1939.114646,-35.551454,9760.832274
0.147500,-1836.002682,-97.191824,9802.041274
0.147813,-1923.585960,-63.788165,9770.333400
0.148125,-1747.104018,-54.595767,9705.097449
0.148438,-1683.880003,-81.097648,9618.276224
0.148750,-1686.088165,-23.939996,9874.603602
0.149062,-1641.415354,82.110962,9745.121766
0.149375,-1581.815946,16.092470,9839.549232
0.149688,-1646.602344,-127.200483,9755.444747
0.150000,-1576.562612,120.862551,9833.755470
0.150312,-1480.277450,163.150952,9846.837205
0.150625,-1404.387576,-47.416584,9781.037609
0.150938,-1416.013370,-46.046352,9826.084961
0.151250,-1206.135202,14.593548,9833.124416
0.151562,-1380.124788,-62.570589,9700.996962
0.151875,-1254.997177,-109.634806,9828.852869
0.152188,-1195.495002,43.208633,9659.685675
0.152500,-1269.114278,35.146916,9727.553645
0.152812,-1285.356680,-108.773344,9844.429372
0.153125,-1275.357622,-146.392267,10000.968400
0.153438,-1128.539118,-22.193205,9846.518463
0.153750,-1013.215414,12.921276,9827.418682
0.154062,-1040.575918,-57.191608,9711.334206
0.154375,-1008.512251,-25.945411,9840.512661
0.154688,-1012.477595,26.301226,9913.385320
0.155000,-896.833998,-85.655809,9862.132267
0.155312,-1071.942715,8.978660,9711.404042
0.155625,-841.638071,-51.420193,9832.741992
0.155938,-816.929325,-60.076509,9833.720646
0.156250,-887.565965,-89.107119,9823.304422
0.156562,-562.466129,-103.605090,9851.937033
0.156875,-805.906288,123.080014,9849.276064
0.157188,-739.346394,-138.616554,9702.274700
0.157500,-707.285856,92.734320,9845.639862
0.157812,-480.308294,-4.735686,9818.116218
0.158125,-597.962661,40.312241,9788.339025
0.158438,-431.067201,0.621390,9840.238644
0.158750,-395.076926,-14.730918,9755.506378
0.159062,-378.704863,9.233360,9853.997915
0.159375,-461.376900,-0.302167,9745.929290
0.159688,-362.931173,111.599214,9688.822900
0.160000,-137.214222,-54.426126,9722.215639
0.160312,-331.341955,17.663777,9946.267654
0.160625,-251.558398,4.932968,9788.084619
0.160938,-154.885168,-11.578537,9852.219919
0.161250,-34.009603,-71.730981,9771.465815
0.161562,-35.373866,-5.840042,9899.043214
0.161875,47.120559,99.213796,9838.228462
0.162188,-54.335248,29.380314,9701.362269
0.162500,149.941900,-42.032263,9657.280515
0.162812,163.204726,42.664430,9935.158251
0.163125,33.441992,-9.134840,9709.102285
0.163438,327.518165,-153.382420,9778.720223
0.163750,431.018251,75.866897,9699.754264
0.164062,229.416469,46.945906,9811.247564
0.164375,338.596617,59.891960,9782.458554
0.164687,489.136228,14.359904,9834.893207
0.165000,301.988306,-91.183607,9722.483729
0.165313,304.381636,37.491091,9937.060630
0.165625,402.826450,-166.262248,9753.339779
0.165937,504.147469,119.980329,9791.228761
0.166250,546.078303,-73.268187,9790.088297
0.166563,683.683071,44.675764,9763.390721
0.166875,699.211282,54.876836,9739.562274
0.167187,620.557424,-13.787630,9761.615646
0.167500,808.022094,-142.465799,9891.594842
0.167813,954.809852,-41.587969,9714.248141
0.168125,942.753591,-23.191694,9658.238533
0.168437,968.228709,108.485670,9804.568549
0.168750,932.340881,142.711446,9744.423064
0.169063,1051.030077,-12.488665,9750.849774
0.169375,936.478971,25.633873,9722.152002
0.169687,1115.088649,84.755884,9779.980120
0.170000,1089.064088,-166.791350,9956.552203
0.170313,1227.342273,6.583552,9863.180645
0.170625,1214.756675,-206.125697,9826.660767
0.170937,1130.662426,-35.328291,9784.883526
0.171250,1268.231020,-123.123674,9581.043907
0.171563,1395.340725,-86.737988,9796.121528
0.171875,1247.179252,-18.040807,9835.047488
0.172187,1332.156170,-49.691217,9757.938055
0.172500,1354.488301,-74.190499,9864.966661
0.172813,1335.141608,-58.402667,9787.674554
0.173125,1570.213258,-141.445452,9823.465574
0.173437,1636.408513,6.875118,9773.627771
0.173750,1633.438627,0.020482,9870.902138
0.174063,1626.427878,106.559540,9719.083411
0.174375,1640.118640,-9.317560,9804.225475
0.174687,1700.353512,52.594279,9893.954133
0.175000,1659.254862,136.018762,9710.619130
0.175313,1825.508863,-92.176150,9803.243467
0.175625,1873.499489,-28.370664,9684.150816
0.175937,1899.950912,-60.954869,9760.217885
0.176250,1817.978826,-199.448828,9745.167148
0.176563,1901.445762,-72.899903,9580.509676
0.176875,1916.232767,-38.454088,9751.492973
0.177187,2106.497794,66.566500,9806.261245
0.177500,2011.290589,16.326361,9860.135357
0.177813,1879.430616,-31.103418,9818.010655
0.178125,2094.528327,-41.270914,9814.029227
0.178437,2245.442909,116.484909,9817.724219
0.178750,2181.443575,17.609043,9806.323964
0.179063,2228.302084,-24.850765,9889.715841
0.179375,2191.681264,104.723206,9851.490500
0.179688,2061.468591,13.515099,9746.253011
0.180000,2104.265601,32.837402,9760.547380
0.180312,2178.832389,208.528512,9981.619442
0.180625,2297.291682,-51.123254,9821.775732
0.180938,2360.668815,4.431213,9762.920793
0.181250,2418.946122,-37.588127,9728.217827
0.181562,2363.966565,112.318734,9766.466256
0.181875,2494.646828,-98.313982,9811.622697
0.182188,2422.073922,-93.021255,9891.193507
0.182500,2413.921147,-185.847292,9897.429499
0.182812,2563.696481,-173.037175,9855.219271
0.183125,2447.146032,-87.217102,9838.592725
0.183438,2326.156383,17.041825,9814.539890
0.183750,2483.306760,-126.018240,9871.307270
0.184062,2598.688393,-113.381389,9787.455467
0.184375,2367.219682,-84.320979,9602.264491
0.184688,2606.960931,82.273489,9831.723269
0.185000,2630.276588,26.934658,9808.018302
0.185312,2563.447038,32.831392,9753.993432
0.185625,2579.085004,-135.276765,9706.151696
0.185938,2680.206488,-56.311091,9910.136224
0.186250,2692.344443,-45.257932,9854.108465
0.186562,2855.200381,-105.951277,9664.795134
0.186875,2802.070524,-39.989731,9960.014097
0.187188,2662.662599,-65.677003,9760.577951
0.187500,2737.178412,-73.475199,9777.869221
0.187812,2877.746387,-139.439314,9794.665648
0.188125,2988.158015,-76.162794,9792.079267
0.188438,2881.900286,29.159617,9774.130068
0.188750,2889.688935,60.055371,9846.079963
0.189062,3026.890531,75.606715,9785.252531
0.189375,2888.757607,3.600182,9894.563059
0.189688,2877.722752,25.812336,9843.510177
0.190000,2800.605023,5.457474,9822.126898
0.190312,2883.168546,-40.659955,9619.014136
0.190625,3108.378938,-70.354272,9750.659406
0.190938,2829.538387,63.764981,9897.566973
0.191250,2952.689173,6.503473,9682.016110
0.191562,2846.960958,-78.176476,9850.081550
0.191875,2977.052673,-9.722698,9751.869548
0.192188,3044.245122,-146.402941,9952.919727
0.192500,2959.508682,18.620718,9753.638060
0.192812,3042.501677,-42.325062,9852.952780
0.193125,3046.118250,-17.386179,9872.910310
0.193438,3027.890911,129.548349,9785.141715
0.193750,3132.406196,-60.304386,9748.011936
0.194062,3059.688115,-35.161131,9834.466068
0.194375,2974.554661,133.287259,9827.960281
0.194688,2945.349822,-69.992334,9774.137442
0.195000,2932.348009,-29.795842,9798.545766
0.195312,3037.489986,-57.177455,9823.599623
0.195625,2972.261084,-48.684457,9822.000583
0.195937,3214.519661,18.217146,9862.426731
0.196250,3140.898041,-5.339973,9884.434385
0.196563,2972.944120,-63.211921,9884.883675
0.196875,2959.666795,116.250940,9731.494797
0.197187,3116.389871,110.114742,9822.137295
0.197500,2824.972530,69.022138,9735.857798
0.197813,2933.269999,110.299994,9867.839488
0.198125,3038.494882,43.921904,9850.097243
0.198437,2881.794672,-33.830363,9765.864761
0.198750,2908.232755,-18.217869,9808.694817
0.199063,2909.193846,-122.800783,9689.540729
0.199375,2980.346080,-0.286788,9751.610929
0.199687,2927.971227,25.065377,9773.460006
0.200000,2937.916476,30.905213,9875.454402
0.200313,2941.446813,-13.804526,9832.741016
0.200625,2883.589698,60.715419,9774.035228
0.200937,2956.708203,26.230602,9774.441847
0.201250,2795.514231,54.891788,9647.960480
0.201563,2724.211225,-51.355944,9667.007706
0.201875,2681.525554,-86.340802,9744.155379
0.202187,2677.875780,36.465584,9750.952130
0.202500,2746.706215,146.962790,9861.088966
0.202813,2855.654699,123.630493,9819.535128
0.203125,2769.003417,-1.834483,9825.051678
0.203437,2688.324405,69.022874,9959.805874
0.203750,2631.080120,72.707871,9711.606893
0.204063,2654.144154,-149.837206,9728.748423
0.204375,2643.277943,6.373119,9910.935816
0.204687,2608.813343,-5.194314,9815.112685
0.205000,2517.205739,-93.132599,9727.840737
0.205313,2570.874936,-10.149609,9840.603488
0.205625,2666.787529,74.078146,9869.137807
0.205937,2387.276486,-42.213453,9702.032678
0.206250,2517.181421,35.276828,10004.048308
0.206563,2341.268547,45.376519,9723.545406
0.206875,2499.533125,24.725993,9932.935391
0.207187,2398.375052,-33.377675,9908.349675
0.207500,2263.981620,49.259564,9739.348559
0.207813,2410.938514,39.405854,9873.156766
0.208125,2519.709648,-12.702133,9825.221845
0.208437,2353.858672,-17.365039,9950.102807
0.208750,2408.322287,-6.785443,9858.308558
0.209063,2279.298135,73.765069,9740.733825
0.209375,2081.465217,-16.213899,9835.198048
0.209687,2261.786382,100.806632,9887.564928
0.210000,2156.988709,94.340673,9723.966464
0.210313,2040.822816,79.472167,9675.707685
0.210625,2187.357545,105.832320,9952.186612
0.210938,2113.750060,111.799258,9773.302269
0.211250,2014.456931,-41.223232,9805.133414
0.211562,2091.088625,-43.695822,9813.400699
0.211875,1916.503681,-70.455130,9723.945278
0.212188,2001.851427,132.535921,9772.806988
0.212500,1838.736625,65.917199,9769.330234
0.212812,1919.784030,-26.620563,9874.578760
0.213125,1751.608058,-18.477391,9745.107455
0.213438,1920.917896,51.971644,9945.884694
0.213750,1783.765882,-98.752979,9873.936540
0.214062,1839.222168,-79.289401,9817.325035
0.214375,1619.508879,-142.441736,9886.555244
0.214688,1607.479513,26.104855,9806.906769
0.215000,1672.564152,5.985195,9770.035606
0.215312,1345.286488,61.303237,9762.586498
0.215625,1438.412759,63.985625,9862.131826
0.215938,1564.971409,-108.089276,9760.076559
0.216250,1477.686196,15.331119,9664.129502
0.216562,1476.548217,-29.567614,9749.160306
0.216875,1330.854215,33.938568,9848.696792
0.217188,1357.772955,-49.204080,9769.879372
0.217500,1210.843311,-7.806861,9767.236171
0.217812,1115.862354,-129.986647,9935.230402
0.218125,1046.005069,-47.018281,9735.296709
0.218438,1093.093328,-127.570398,9895.333378
0.218750,1048.639055,33.194690,9765.528921
0.219062,997.222318,-58.208510,9627.093561
0.219375,718.391248,-119.730885,9870.609192
0.219688,796.846724,-18.752834,9925.541992
0.220000,868.291354,117.818085,9916.553414
0.220312,887.769242,8.103030,9887.387722
0.220625,772.161025,-89.582919,9958.005100
0.220938,701.731388,-47.259216,9584.147578
0.221250,540.397969,1.946337,9829.485869
0.221562,839.774203,28.300455,9672.066819
0.221875,542.741513,-20.658173,9736.317260
0.222188,718.087977,-61.585044,9583.167742
0.222500,660.678732,-44.921922,9584.224531
0.222812,509.979749,57.095576,9880.205676
0.223125,394.344433,-88.537701,9739.443841
0.223438,402.676707,-65.273949,9708.136229
0.223750,251.673294,-0.239012,9753.030528
0.224062,316.475618,247.717537,9924.562145
0.224375,247.449830,132.357582,9743.527164
0.224688,241.276051,-57.372693,9776.434938
0.225000,226.179595,21.023290,9804.356477
0.225312,240.131613,-9.942406,9681.675963
0.225625,21.745737,8.000273,9732.760469
0.225938,87.547933,91.318299,9618.162708
0.226250,-108.018615,-91.529436,9769.349223
0.226562,-165.027025,-17.324839,9898.572207
0.226875,-191.685066,49.611571,9819.454296
0.227187,-269.565499,88.749083,9779.490402
0.227500,-161.330773,-134.698000,9883.788192
0.227813,-214.599245,84.734630,9706.790440
0.228125,-235.330106,-97.478168,9676.495413
0.228437,-387.732400,-16.401625,9922.035380
0.228750,-412.274895,-1.421398,9878.239651
0.229063,-528.927245,14.341837,9864.961046
0.229375,-623.055139,-49.884227,9816.541209
0.229687,-543.426303,39.149287,9846.748367
0.230000,-605.798653,-53.671602,9750.709009
0.230313,-763.768405,-62.247433,9738.875588
0.230625,-676.164553,89.928777,9808.935285
0.230937,-909.944985,35.500075,9856.835313
0.231250,-832.361049,81.255898,9645.346640
0.231563,-915.706275,58.000804,9781.245877
0.231875,-954.655806,9.538522,9814.123324
0.232187,-1045.802350,180.769936,9760.931228
0.232500,-929.504668,-69.427294,9832.572146
0.232813,-1006.760241,-121.778803,9711.939542
0.233125,-1003.434839,130.278404,9756.001435
0.233437,-1133.468557,-135.106597,9763.085874
0.233750,-1293.267143,64.318194,9866.017567
0.234063,-1264.959244,-78.848827,9639.621308
0.234375,-1374.865777,-134.312505,9862.422038
0.234687,-1288.382168,76.050843,9724.444329
0.235000,-1272.474234,12.228215,9831.884520
0.235313,-1386.979258,7.192385,9841.336772
0.235625,-1504.802217,-73.405136,9939.341278
0.235937,-1529.626525,4.027855,9767.616883
0.236250,-1526.497479,43.863449,9831.602536
0.236563,-1700.936136,55.437332,9828.038104
0.236875,-1615.302087,38.912271,9834.990658
0.237187,-1652.929576,-94.541396,9842.088797
0.237500,-1753.532293,-7.200035,9770.600509
0.237813,-1784.091409,-155.916106,9769.123875
0.238125,-1777.257064,22.297271,9781.949982
0.238437,-1896.352264,-35.585403,9814.811665
0.238750,-1935.767424,-95.868625,9728.372647
0.239063,-1846.479052,-1.773482,9808.349403
0.239375,-1929.246922,-60.542366,9879.855621
0.239687,-1850.545460,-12.122621,9800.576969
0.240000,-2101.069554,-67.951296,9744.424268
0.240313,-2201.160949,30.259368,9740.020504
0.240625,-2019.682266,-26.403759,9786.819405
0.240937,-2053.991501,-158.744616,9862.400072
0.241250,-2224.662962,90.076357,9687.274076
0.241563,-2317.498177,21.323560,9616.218726
0.241875,-2237.631713,-40.499860,9871.993800
0.242188,-2407.270867,19.040386,9771.706433
0.242500,-2327.122432,48.348194,9722.212241
0.242812,-2506.419797,-206.881028,9700.072681
0.243125,-2382.288809,-81.594790,9795.764832
0.243438,-2563.622450,47.677887,9886.736954
0.243750,-2443.028171,-1.516369,9771.243979
0.244062,-2332.102473,-105.258322,9832.901276
0.244375,-2503.587828,-3.269926,9857.644866
0.244688,-2448.699256,-116.170279,9925.457537
0.245000,-2588.978916,66.533523,9814.189173
0.245312,-2635.685332,46.189705,9794.801752
0.245625,-2710.097705,-25.927293,9746.839024
0.245938,-2532.273873,-12.905889,9806.983154
0.246250,-2644.658127,-5.798675,9881.206235
0.246562,-2534.021476,45.801383,9777.932381
0.246875,-2781.157688,-25.579109,9905.463387
0.247188,-2726.995237,62.011309,9793.833654
0.247500,-2724.351386,112.425555,9804.698080
0.247812,-2638.486603,147.223862,9810.875725
0.248125,-2625.707982,13.544583,9745.627951
0.248438,-2842.574126,-94.091726,9715.728148
0.248750,-2899.788050,36.979178,9915.566797
0.249062,-2965.639933,-7.258548,9828.129726
0.249375,-2736.603385,-76.928025,9743.658395
0.249688,-2866.545634,-33.807067,9802.005141
0.250000,-2926.619160,-98.804886,9676.880440
0.250312,-2893.275537,-34.266742,9793.209613
0.250625,-3107.391345,-18.271757,9769.576687
0.250937,-3053.501451,-73.048038,9748.714989
0.251250,-2852.527613,-60.825591,9811.340200
0.251563,-2906.734290,-45.988377,9795.262712
0.251875,-2936.595240,20.185987,9643.267495
0.252188,-3038.076594,-81.501493,9703.864525
0.252500,-2919.445382,-28.721718,9703.463960
0.252812,-2831.839410,37.357352,9722.142236
0.253125,-3078.876093,-137.606342,9940.501515
0.253437,-2985.671117,-18.311839,9925.043755
0.253750,-3026.733758,108.344796,9834.776752
0.254063,-2967.265842,-202.186839,9664.294173
0.254375,-2998.356690,45.325742,9827.440061
0.254688,-3013.709979,125.486835,9747.903907
0.255000,-3074.111065,-4.501904,9749.437918
0.255312,-3005.524028,-53.974707,9914.012780
0.255625,-3053.256213,80.520983,9765.010171
0.255937,-3014.783379,66.171778,9960.900395
0.256250,-3006.233444,32.147347,9669.083296
0.256563,-2946.010539,132.486547,9862.241955
0.256875,-3041.262007,-104.691167,9902.964798
0.257188,-3015.992988,108.617990,9744.664012
0.257500,-2898.925054,-7.024112,9772.407815
0.257812,-2995.832133,102.700608,9850.931478
0.258125,-2992.127658,127.855547,9781.724046
0.258437,-2893.955242,44.352590,9671.474166
0.258750,-2932.343886,13.591277,9726.408293
0.259062,-2937.019777,-40.206108,9921.791950
0.259375,-2916.002388,-21.405533,9791.503699
0.259688,-3021.165941,-115.267728,9725.224440
0.260000,-2872.623849,89.831070,9824.020837
0.260313,-2790.064012,38.235693,9784.088672
0.260625,-2835.396744,14.638547,9755.562382
0.260937,-2991.243819,17.992753,9679.150468
0.261250,-2828.028961,33.140299,9613.533512
0.261562,-2906.311861,155.839868,9870.846623
0.261875,-2834.352758,34.504007,9892.732033
0.262188,-2787.316117,-21.749945,9769.815001
0.262500,-2873.690448,49.626432,9765.273227
0.262813,-2651.218969,-41.324939,9767.629266
0.263125,-2742.544770,8.049948,9709.493656
0.263437,-2651.773808,19.865598,9768.310254
0.263750,-2641.697739,71.654980,9895.245748
0.264062,-2561.458271,-15.055437,9809.079619
0.264375,-2549.322686,59.553148,9807.294664
0.264688,-2737.447061,13.955297,9734.080700
0.265000,-2590.138532,-87.091750,9935.260128
0.265313,-2737.650661,-44.888050,9813.811799
0.265625,-2575.107698,11.013494,9969.448379
0.265937,-2453.898653,166.276207,9806.185403
0.266250,-2408.902636,-2.045223,9692.034066
0.266562,-2349.088781,3.907255,9848.054346
0.266875,-2451.808020,4.183851,9744.937099
0.267188,-2364.710215,-144.350732,9830.982482
0.267500,-2350.473942,-129.381914,9855.149067
0.267813,-2224.120959,-1.132949,9878.780755
0.268125,-2164.916428,5.159967,9779.416525
0.268437,-2286.473181,-41.315834,9792.030200
0.268750,-1920.124735,39.454321,9893.639689
0.269062,-2187.548331,-29.873866,9830.030034
0.269375,-2180.300052,65.235106,9795.019622
0.269688,-2066.010119,-174.763990,9791.352731
0.270000,-2015.645028,50.508684,9812.932829
0.270313,-1994.299668,117.136058,9787.159730
0.270625,-2051.007394,1.013642,9753.473602
0.270937,-1841.580707,-172.226944,9739.124024
0.271250,-1914.848685,-23.297705,9693.951099
0.271562,-1755.296526,-210.321020,9818.508201
0.271875,-1725.430133,89.183487,9848.511772
0.272188,-1896.697724,-39.791579,9863.278561
0.272500,-1830.593951,83.726241,9637.439840
0.272813,-1789.084823,-113.496138,9722.739268
0.273125,-1645.327424,-13.888469,9733.237534
0.273438,-1616.734856,-33.069575,9866.736468
0.273750,-1554.784137,39.351843,10068.976139
0.274062,-1595.982114,122.391800,9814.477188
0.274375,-1451.070782,9.659745,9746.114721
0.274687,-1326.627246,-24.871283,9648.369942
0.275000,-1499.045636,-74.386474,9839.828300
0.275313,-1360.727388,21.752934,9805.773976
0.275625,-1277.566322,48.175741,9924.909287
0.275938,-1259.805364,-41.953049,9818.924921
0.276250,-1216.751957,21.032149,9738.940106
0.276562,-1010.621549,35.711933,9756.814460
0.276875,-1000.233352,15.926605,9800.942819
0.277187,-985.353297,1.281384,9697.489181
0.277500,-1064.272083,2.750649,9767.829334
0.277813,-773.779070,185.642030,9690.998191
0.278125,-873.562476,86.675990,9797.461277
0.278438,-897.770905,58.348336,9740.226347
0.278750,-827.327816,14.175831,9794.951636
0.279062,-788.011129,-14.760171,9826.859213
0.279375,-527.407380,-0.868667,9805.445809
0.279687,-628.655079,6.412041,9786.821468
0.280000,-587.794549,-158.112835,9664.717594
0.280313,-712.645765,-22.627696,9812.127815
0.280625,-428.791551,-13.752372,9807.044280
0.280938,-519.614969,-104.852338,9654.514295
0.281250,-472.366620,21.368011,9753.842115
0.281562,-279.852772,-38.657462,9759.256993
0.281875,-344.686582,-1.092433,9661.339677
0.282187,-155.389632,147.379953,9768.737710
0.282500,-79.050400,-35.828382,9908.020785
0.282813,-258.418699,132.383203,9864.675884
0.283125,-72.558027,-76.916364,9820.638129
0.283438,-133.930720,37.668501,9874.317737
0.283750,40.692863,59.784243,9629.353321
0.284062,172.308015,-11.404721,9886.511850
0.284375,43.905078,-2.372931,9804.923425
0.284687,350.840360,-44.835856,9879.969116
0.285000,235.352495,-92.569766,9741.040150
0.285313,219.077135,-60.478449,9811.305712
0.285625,357.221136,-128.863838,9884.290563
0.285938,483.900276,-3.618424,9789.455288
0.286250,363.605815,160.201830,9821.909909
0.286562,527.054385,92.116267,10006.453783
0.286875,470.021438,-23.821089,9833.014509
0.287187,729.059097,-175.191721,9909.157648
0.287500,697.754995,107.358814,9844.964338
0.287813,703.783551,-3.085454,9973.869236
0.288125,872.856493,96.979793,9783.120230
0.288438,738.956639,-110.345390,9872.983821
0.288750,862.329993,-172.606590,9724.205360
0.289062,1092.979992,28.049396,9909.782074
0.289375,986.563729,50.699249,10053.170321
0.289687,1155.944246,46.425279,9762.963609
0.290000,1113.611273,-94.372921,9708.714892
0.290312,1092.261075,-136.637001,9786.406422
0.290625,1178.460714,-22.514198,9960.967236
0.290938,1253.872273,76.854104,9574.134832
0.291250,1264.090533,-115.119799,9851.367634
0.291563,1279.687794,45.896784,9762.187026
0.291875,1331.426478,-73.665068,9865.524551
0.292187,1323.179292,-143.520812,9893.091494
0.292500,1498.132497,14.626355,9754.629465
0.292812,1567.770474,-108.161339,9801.981413
0.293125,1642.703818,65.963298,9760.014916
0.293438,1484.328699,-28.470913,9708.677505
0.293750,1738.744776,166.559979,9806.258510
0.294063,1717.874785,-12.954923,9580.929393
0.294375,1649.374366,-75.693006,9898.110227
0.294687,1815.347731,-15.276419,9800.879659
0.295000,1915.967295,-76.946485,9863.003575
0.295312,1935.278420,-71.138181,9763.641295
0.295625,1993.587174,49.851478,9728.483189
0.295938,2052.640251,65.814135,9867.714077
0.296250,2089.504103,162.080613,10009.139070
0.296563,2055.152508,-38.289796,9834.546246
0.296875,1930.903635,-63.361484,9693.577717
0.297187,2075.555525,63.212324,9730.236670
0.297500,2202.938109,189.987402,9872.509054
0.297812,2174.307566,-85.122739,9818.678881
0.298125,2303.411962,-95.202323,9815.962616
0.298438,2348.354470,-53.162015,9959.602253
0.298750,2323.595592,127.173286,9777.014460
0.299063,2504.577778,13.545822,9871.056637
0.299375,2309.860678,28.047872,9833.954693
0.299687,2495.260841,-84.304365,9810.671600
0.300000,2415.042272,57.111933,9804.252924
0.300312,2421.672942,57.852065,9838.620580
0.300625,2561.652931,-12.483956,9766.579092
0.300938,2494.900935,-5.745341,9736.942610
0.301250,2641.649107,-8.857463,9886.585227
0.301563,2507.501088,-125.920384,9814.119837
0.301875,2630.681819,60.351973,9932.312341
0.302187,2586.552717,52.447971,9743.244187
0.302500,2660.492187,3.177948,9795.700032
0.302812,2673.902272,-126.495320,9921.748432
0.303125,2636.834199,-45.097521,9939.654244
0.303438,2802.113200,3.824764,9785.446154
0.303750,2671.683903,-88.783269,9892.725985
0.304063,2713.573537,-166.058834,9764.765686
0.304375,2883.054443,-11.430143,9669.251794
0.304688,2908.395436,-66.610958,9792.989251
0.305000,2901.794086,-64.374481,9829.228901
0.305312,2892.456866,-54.918833,9872.490938
0.305625,3063.396292,15.495112,9761.912631
0.305937,2799.281777,15.554963,9697.179043
0.306250,2850.507187,33.595224,9894.972570
0.306563,2843.402172,-28.983095,9840.541061
0.306875,3006.739413,-24.896063,9865.209924
0.307188,2968.816500,22.896785,9661.257383
0.307500,3044.557021,69.031500,9860.140834
0.307812,3042.386141,120.345032,9915.090434
0.308125,2954.462199,-79.842910,9741.196363
0.308437,2913.803344,19.355531,9703.576786
0.308750,2905.773960,-13.164730,9758.779084
0.309063,3166.887238,47.563341,9740.022826
0.309375,3071.127956,-161.587624,9787.080204
0.309688,3043.895971,-9.868695,9834.727658
0.310000,2971.018441,-133.724476,9831.466703
0.310312,2982.922561,160.080061,10035.972433
0.310625,2970.852943,158.169348,9690.011109
0.310937,2971.018437,24.628741,9802.079930
0.311250,2802.136209,142.566215,9784.934291
0.311563,2985.968545,51.755829,9785.649922
0.311875,2955.695297,25.884318,9920.573266
0.312188,3003.817256,-35.444434,9718.079676
0.312500,2990.716426,-15.909957,9872.128988
0.312812,3034.489818,-69.245631,9789.774828
0.313125,2956.399388,140.200993,9835.608190
0.313437,3011.382257,58.761168,9973.388739
0.313750,2731.888059,-64.885956,9871.347490
0.314063,2836.766870,24.006015,9882.356774
0.314375,3049.998464,20.448924,9896.801879
0.314688,2800.431093,78.630171,9856.809137
0.315000,2860.648815,-12.937057,9757.396401
0.315312,2923.496939,-24.757748,9778.831036
0.315625,2779.305633,86.082091,9919.601147
0.315937,2889.651379,-18.414516,9816.202416
0.316250,2698.527757,110.899357,9906.557053
0.316563,2639.628602,49.455029,9890.549695
0.316875,2665.273415,-81.289334,9950.993075
0.317188,2617.246465,15.491475,10009.805184
0.317500,2725.065572,-49.755091,9838.082238
0.317812,2677.016664,106.277398,9700.245437
0.318125,2703.697715,-20.496191,9721.899032
0.318437,2568.581408,-126.156844,9774.100710
0.318750,2827.932694,29.330359,9843.379960
0.319063,2588.971536,108.557887,9810.855593
0.319375,2564.115511,-3.712181,9852.778292
0.319688,2574.477017,77.673492,9785.615286
0.320000,2487.848492,-44.718711,9731.281630
0.320312,2425.213755,-36.163949,9764.246436
0.320625,2450.094990,-79.976582,9761.771393
0.320937,2483.336165,-68.219290,9658.066788
0.321250,2428.815462,-22.207186,9803.588487
0.321562,2415.770984,-10.866169,9734.592675
0.321875,2259.292407,-38.839435,9862.858930
0.322188,2205.593314,71.413849,9876.075612
0.322500,2390.257812,-204.153174,9836.304056
0.322813,2172.297126,61.648191,9937.944779
0.323125,2190.377322,35.074949,9720.053571
0.323437,2171.071851,-7.970146,9888.090325
0.323750,2184.770774,60.613938,9933.869073
0.324062,1921.354762,-44.480682,9781.105510
0.324375,1948.613934,31.607079,9740.452600
0.324688,1909.180852,1.744316,9816.061900
0.325000,1875.855777,-83.371239,9901.352287
0.325313,1662.349390,-143.769098,9774.193639
0.325625,1802.369806,-21.691997,9731.268971
0.325937,1532.571821,-38.987591,9739.564457
0.326250,1741.296092,100.940457,9770.233051
0.326562,1713.170259,-82.978085,9750.474479
0.326875,1670.077347,59.284460,9895.502206
0.327188,1477.322124,0.223453,9742.812630
0.327500,1600.978507,-31.477024,9730.312621
0.327813,1405.726263,21.934671,9655.736388
0.328125,1326.392437,-36.501422,9786.870946
0.328437,1295.305372,131.950946,9825.998679
0.328750,1254.552983,-137.360331,9711.179117
0.329062,1284.310620,90.022202,9839.271180
0.329375,1284.132437,22.890426,9774.115584
0.329688,997.195357,4.376778,9797.233593
0.330000,1068.751354,-0.772284,9855.009196
0.330313,1130.469425,-19.975378,9846.482362
0.330625,1020.489253,-6.249453,9726.320149
0.330937,990.380763,99.373567,9762.001318
0.331250,774.933424,151.766978,9764.339053
0.331562,915.917125,-26.583833,9789.584325
0.331875,658.876504,15.772134,9908.615322
0.332188,743.654757,-20.491461,9931.737803
0.332500,781.110114,-24.165528,9822.476514
0.332813,766.042061,-139.500023,9896.093681
0.333125,599.846179,-16.238343,9946.263398
0.333437,572.395572,56.512024,9802.342087
0.333750,396.192816,48.668447,9880.593625
0.334062,348.772758,-14.355478,9804.783964
0.334375,423.259955,6.380925,9776.868969
0.334688,272.102584,208.583613,9751.246854
0.335000,203.928588,32.549779,9829.248680
0.335313,43.301839,-1.179274,9683.174568
0.335625,110.141361,104.507359,9821.507298
0.335938,91.647264,-83.768860,9752.200938
0.336250,-81.712960,169.091445,9847.603015
0.336562,-116.923231,85.492183,9855.299671
0.336875,-8.095703,26.742372,9754.893969
0.337187,-178.422307,155.633261,9653.229147
0.337500,-273.876445,8.423509,9743.128017
0.337813,-399.784882,-81.160811,9770.074529
0.338125,-416.339783,-94.640764,9765.277535
0.338438,-444.608186,-75.629854,9749.968202
0.338750,-372.779024,44.853376,9816.505617
0.339062,-588.693258,34.827832,9753.939073
0.339375,-453.672841,-161.469961,9878.484204
0.339687,-728.680287,80.823083,9840.823094
0.340000,-739.935278,35.579890,9814.821902
0.340313,-700.543433,125.350295,9688.939610
0.340625,-843.674683,146.309280,9835.068640
0.340938,-947.023892,-13.302584,9945.068963
0.341250,-946.984081,-56.472873,9697.420381
0.341562,-956.041363,-63.265693,9726.628524
0.341875,-1184.345240,103.819338,9818.922369
0.342187,-1121.742336,-9.311026,9696.701765
0.342500,-1164.982563,-140.779079,9702.251600
0.342813,-1242.493535,-82.014323,9739.537214
0.343125,-1204.883899,149.954223,9806.546348
0.343438,-1362.254648,33.301620,9703.158330
0.343750,-1398.508135,98.707389,9760.638282
0.344062,-1418.409496,12.868698,9815.563246
0.344375,-1414.663662,-26.387432,9768.948076
0.344687,-1541.671419,-105.314784,9878.887583
0.345000,-1453.093152,69.893948,9802.212205
0.345313,-1696.896363,-183.677485,9745.094482
0.345625,-1570.611082,137.875209,9935.254242
0.345938,-1790.786763,-113.082365,9766.146755
0.346250,-1783.190951,-65.555284,9865.556306
0.346562,-1788.342835,35.699163,9866.112801
0.346875,-1699.717272,-85.482953,9800.126266
0.347187,-1838.374288,-69.802500,9868.177404
0.347500,-1987.724501,131.479674,9955.757890
0.347813,-1895.801635,18.438562,9747.019893
0.348125,-2060.545518,20.842056,9842.128098
0.348438,-2149.706954,-91.993285,9854.483062
0.348750,-2092.645060,-17.599830,9750.183617
0.349062,-2162.319570,59.702154,9798.956142
0.349375,-2134.092925,64.018706,9796.655968
0.349687,-2294.028922,-103.309394,9870.010800
0.350000,-2258.331137,-43.570951,9827.184195
0.350313,-2276.010605,-145.559316,9905.968614
0.350625,-2341.559546,-36.137227,9673.830499
0.350938,-2402.240269,-101.678897,9770.561148
0.351250,-2490.923783,-9.963578,9757.073095
0.351562,-2397.066134,132.406546,9664.716594
0.351875,-2491.684765,45.270192,9764.879445
0.352187,-2495.284927,63.708433,9846.624565
0.352500,-2594.394038,115.749026,9777.902350
0.352812,-2595.635694,22.294270,9849.519605
0.353125,-2708.988700,24.297415,9876.885214
0.353438,-2647.478289,-211.858013,9787.182856
0.353750,-2620.376774,27.059746,9673.520438
0.354063,-2700.378662,56.484201,9993.940450
0.354375,-2664.230654,76.743242,9761.444283
0.354687,-2732.041209,24.360840,9801.022466
0.355000,-2670.974493,10.038517,9810.731840
0.355312,-2817.202375,-15.382190,9762.918947
0.355625,-2953.900419,112.659572,9846.684991
0.355938,-2807.908986,34.947078,9904.737079
0.356250,-2874.298349,56.766416,9748.306915
0.356563,-2956.469993,-124.233468,9805.569681
0.356875,-2842.728330,105.429192,9776.388781
0.357187,-2888.837926,140.003846,9826.041075
0.357500,-2888.355930,-2.055247,9913.110652
0.357812,-2963.408769,-39.242027,9696.751655
0.358125,-2932.720808,64.438778,9808.496639
0.358438,-2938.627318,-0.371916,9782.343352
0.358750,-2826.310084,111.963916,9897.000996
0.359063,-3031.120198,39.371690,9802.322616
0.359375,-2984.171902,26.414073,9733.299907
0.359687,-2959.956177,-67.877847,9843.318806
0.360000,-3131.580254,13.927274,9874.807052
0.360312,-3125.163425,25.457195,9771.542655
0.360625,-2825.782513,62.118921,9867.828980
0.360938,-3141.330435,23.795205,9901.879957
0.361250,-2953.668456,89.259826,9801.070494
0.361563,-3066.010133,108.204750,9793.145510
0.361875,-3056.480667,-20.870463,9802.921629
0.362187,-3150.091549,40.621936,9826.533152
0.362500,-3058.396266,-1.227943,9958.605322
0.362812,-2917.220923,64.175611,9668.625744
0.363125,-3083.492059,-73.489859,9792.472971
0.363438,-2915.968766,106.854633,9764.373541
0.363750,-2928.540220,-56.818640,9809.480734
0.364063,-2780.934295,70.865660,9913.454447
0.364375,-2967.951893,-93.002378,9920.704806
0.364687,-2815.306576,127.357787,9766.518310
0.365000,-2830.464414,33.341769,9914.236096
0.365312,-2908.509851,4.750621,9941.611647
0.365625,-3001.428493,-160.773420,9818.561693
0.365938,-2729.271085,-114.523775,9832.243282
0.366250,-2939.636368,-6.984756,9927.185232
0.366563,-2847.648580,-90.461511,9637.967273
0.366875,-2717.249305,-69.283075,9892.905787
0.367188,-2675.600647,-137.707262,9893.045644
0.367500,-2808.339988,25.123666,9775.050587
0.367812,-2717.953489,27.915383,9825.588332
0.368125,-2709.639612,57.789702,9839.026999
0.368437,-2566.868939,-71.690705,9781.867328
0.368750,-2432.353460,119.211181,9822.842431
0.369063,-2749.346189,-34.060160,9796.944438
0.369375,-2498.784003,17.632053,9703.327396
0.369688,-2768.817289,-21.402067,9803.291923
0.370000,-2506.038022,-42.623591,9676.457646
0.370312,-2561.813110,-15.244884,9808.871017
0.370625,-2278.671560,16.984742,9803.288564
0.370937,-2388.587214,99.067713,9803.148496
0.371250,-2423.704665,28.871574,9795.745584
0.371563,-2366.574909,14.026856,9779.853257
0.371875,-2333.535801,-16.805632,9803.526775
0.372188,-2232.359802,302.398083,9543.350404
0.372500,-2219.034989,-13.583504,9836.793302
0.372812,-2111.932334,-2.022295,9757.265258
0.373125,-1998.280375,77.433587,9702.227091
0.373437,-2021.581141,135.313819,9808.845510
0.373750,-2131.079118,21.826462,9754.121763
0.374063,-2117.337690,-35.688134,9729.299213
0.374375,-2001.448462,72.144552,9797.293634
0.374688,-1809.505297,129.403524,9779.228528
0.375000,-1872.498624,-131.505042,9648.100209
0.375312,-1850.236642,40.482760,9696.600692
0.375625,-1736.127583,146.431889,9802.242938
0.375937,-1810.034867,-34.854882,9682.085535
0.376250,-1736.805114,82.515848,9725.254991
0.376563,-1552.983094,-32.526576,9630.558090
0.376875,-1565.516741,-25.121009,9817.483961
0.377188,-1524.305109,138.673237,9954.149546
0.377500,-1408.765218,35.967441,9759.298737
0.377812,-1426.465560,11.303219,9776.567658
0.378125,-1379.471309,13.332253,9718.472587
0.378437,-1305.659912,132.163207,9845.138838
0.378750,-1164.410330,-46.972098,9849.153654
0.379063,-1151.040246,-29.184807,9760.762654
0.379375,-1194.083957,115.066567,9694.040292
0.379688,-1064.959191,134.660072,9822.100595
0.380000,-930.587383,-109.257981,9686.698817
0.380312,-774.072220,-9.512140,9789.348792
0.380625,-955.988679,-15.746957,10012.257168
0.380937,-777.991148,-114.764971,9848.043120
0.381250,-765.878016,130.095510,9800.522616
0.381563,-618.896507,23.978510,9892.740639
0.381875,-588.414657,-25.510698,9777.896159
0.382188,-445.752529,-83.957829,9703.533990
0.382500,-460.850600,-7.164554,9829.104021
0.382812,-484.653995,86.454987,9747.570682
0.383125,-422.554970,-108.375639,9677.786706
0.383437,-285.256632,-65.041216,9875.485368
0.383750,-224.175198,-40.380647,9841.013692
0.384062,-1.869047,104.790120,9757.456000
0.384375,2.579258,6.882993,9854.835288
0.384688,-163.153611,97.415666,9955.434992
0.385000,21.067216,-79.732695,9866.134697
0.385313,-51.083615,86.330589,9783.360267
0.385625,-14.709652,123.791769,9829.371678
0.385937,239.552928,-98.887250,9815.811666
0.386250,286.482494,-16.215918,9802.187679
0.386562,221.452322,50.627748,9682.258161
0.386875,498.122242,41.453524,9855.772099
0.387188,350.378650,-145.738404,9822.256542
0.387500,396.963180,160.614846,9930.841315
0.387813,604.201272,-25.315159,9843.818388
0.388125,631.063335,110.461665,9875.348156
0.388437,661.703074,-5.646911,9917.337257
0.388750,730.065936,-31.893141,9719.586581
0.389062,813.927840,-42.587691,9893.262814
0.389375,845.128171,-50.972966,9890.691060
0.389688,902.416408,-34.332647,9754.338384
0.390000,824.087237,80.102879,9765.074288
0.390313,927.552005,-75.189773,9730.911800
0.390625,1142.501732,92.386180,9664.169609
0.390937,1095.543930,46.314418,9759.643538
0.391250,1253.284897,-50.270448,9943.166342
0.391562,1365.781160,-2.391949,9803.767665
0.391875,1295.289914,48.314901,9679.233889
0.392188,1402.507138,47.376644,9910.689948
0.392500,1601.587408,-64.413116,9813.101170
0.392813,1546.054763,-53.711102,9842.859195
0.393125,1692.166257,89.750206,9674.005480
0.393437,1721.186341,-9.687264,9795.378366
0.393750,1711.796423,-107.135234,9775.013157
0.394062,1694.881964,3.616846,9660.622856
0.394375,1688.047824,117.481185,9857.558562
0.394688,1717.289477,-13.071259,9698.262107
0.395000,1895.170292,-109.448510,9703.764823
0.395313,1942.954739,101.248677,9805.768261
0.395625,1939.940906,-27.069448,9830.208292
0.395937,2069.350538,-147.000299,9878.909888
0.396250,1999.802475,50.197564,9847.013949
0.396562,2182.782943,-126.115971,10018.209839
0.396875,2142.052148,54.702713,9939.335356
0.397188,2179.896618,37.829874,9710.692444
0.397500,2225.776211,58.383431,9865.156065
0.397813,2259.929834,24.430597,9754.602855
0.398125,2507.901028,-21.573729,9904.901425
0.398438,2219.925098,192.463077,9647.803289
0.398750,2401.996116,-138.785696,9705.567704
0.399062,2525.264467,21.290625,9796.242627
0.399375,2519.982348,-66.888543,9745.483384
0.399687,2474.169834,-23.445613,9695.315073
0.400000,2672.193458,41.528016,9810.986215
0.400313,2481.027032,-21.825772,9787.291272
0.400625,2494.384230,51.019660,9915.480013
0.400938,2675.557759,-76.012838,9884.269329
0.401250,2543.805906,-64.830729,9940.519013
0.401562,2498.791017,122.345569,9707.485452
0.401875,2787.319021,149.056158,9882.479364
0.402187,2804.040765,40.026489,9730.984959
0.402500,2826.930392,-0.071377,9835.289693
0.402813,2753.321531,156.903208,9762.899603
0.403125,2829.671335,-209.283152,9783.911911
0.403438,2759.258693,64.883813,9664.182801
0.403750,2995.403506,161.088468,9743.762116
0.404062,2938.818581,92.763688,9908.003566
0.404375,2952.498786,131.621670,9716.889223
0.404687,2753.391974,28.981412,9954.974283
0.405000,2988.929103,-46.322770,9874.878277
0.405313,3057.490148,-181.465878,9792.450940
0.405625,3047.566176,23.944237,9853.775803
0.405938,3024.346549,50.831872,9758.565446
0.406250,2970.741864,-47.245871,9782.691494
0.406562,2951.719446,-87.070997,9685.845899
0.406875,3034.084896,-10.844692,9821.290325
0.407187,3022.097591,-8.690854,9777.227778
0.407500,3014.539242,64.304070,9878.693568
0.407813,2973.671679,-72.579392,9732.221156
0.408125,3134.314710,72.770624,9783.083907
0.408438,2906.413045,-4.314057,9926.589247
0.408750,2996.676294,85.527841,9844.274833
0.409062,2949.337771,-63.940298,9777.911430
0.409375,3074.199545,63.264989,9770.377893
0.409687,3100.577175,-30.801969,9839.118859
0.410000,3078.787830,134.657012,9832.381891
0.410313,3031.436344,0.522256,9798.745911
0.410625,2849.161746,-122.436172,9789.746101
0.410938,3116.860496,-47.205308,9830.237705
0.411250,2979.318779,7.876245,9715.063587
0.411562,2915.560524,41.100076,9806.016763
0.411875,2910.850089,-27.664690,9794.632129
0.412187,2865.504269,-42.387156,9850.497332
0.412500,2908.761278,111.660394,9742.464922
0.412813,2880.505185,36.152010,9823.768580
0.413125,2806.387841,29.774085,9720.999163
0.413438,2607.779671,-24.467720,9745.105582
0.413750,2787.416019,-49.275499,9687.847045
0.414062,2803.916117,30.363632,9899.297180
0.414375,2782.104767,-56.669134,9681.970440
0.414687,2700.685263,3.100231,9877.872028
0.415000,2720.898864,-31.579411,9829.387449
0.415312,2737.302205,-128.275787,9902.973649
0.415625,2586.563777,-131.317332,9662.239021
0.415938,2709.390267,97.205339,9734.522252
0.416250,2402.349999,17.528266,9856.648050
0.416563,2423.338228,59.738591,9692.344648
0.416875,2416.069442,-112.352969,9819.553483
0.417187,2255.997461,8.830861,9851.917201
0.417500,2333.478322,-44.318801,9622.096065
0.417812,2474.080927,-95.255897,9752.224328
0.418125,2433.149742,-127.214216,9792.988293
0.418438,2300.114434,47.098501,9878.500191
0.418750,2387.404597,16.005550,9765.120464
0.419063,2225.201487,37.011369,9773.401497
0.419375,2121.473650,92.888837,9717.973735
0.419687,2134.843817,-5.224201,9806.869220
0.420000,2057.735227,21.413673,9911.759854
0.420312,2079.775053,-83.794143,9773.730451
0.420625,1851.871051,-12.714312,9833.135030
0.420938,2002.326331,3.280987,9878.118797
0.421250,1834.934835,25.927610,9806.096651
0.421563,1888.535450,66.043370,9760.487672
0.421875,1644.351302,138.622066,9695.895491
0.422187,1680.754955,-62.200904,9751.654619
0.422500,1666.362465,-100.389279,9781.018126
0.422812,1677.240870,140.585160,9772.973329
0.423125,1451.940223,61.109672,9874.827048
0.423438,1626.192828,84.823024,9819.700777
0.423750,1474.127628,-72.972742,9719.227760
0.424063,1335.459024,62.852083,9984.313531
0.424375,1416.227929,29.253048,9660.212238
0.424687,1267.726899,101.680371,9789.031571
0.425000,1292.211283,77.287693,9680.615367
0.425312,1324.836184,140.541201,9668.289837
0.425625,1139.331213,-173.912066,9873.028369
0.425938,974.035672,-21.925076,9808.482390
0.426250,919.920097,124.206201,9855.083331
0.426563,937.902663,-5.237101,9867.435820
0.426875,851.197010,19.218750,9692.405563
0.427187,697.963037,-99.250799,9901.785022
0.427500,647.202351,-11.605455,9813.402472
0.427812,689.594654,-80.592116,9712.292346
0.428125,759.414958,11.177771,9770.837133
0.428438,296.293654,-99.308923,9850.689936
0.428750,499.408403,-33.790799,9936.268624
0.429063,359.142863,48.977733,9760.038013
0.429375,372.698328,-88.919869,9679.771266
0.429688,313.912055,-59.963750,9802.537329
0.430000,182.721109,-69.262911,9723.744615
0.430312,31.102401,-45.569936,9755.099557
0.430625,-65.579042,36.095742,9856.129067
0.430937,-169.993552,-52.616539,9661.919208
0.431250,11.467125,-22.212605,9683.272149
0.431563,-169.342512,44.551302,9850.094890
0.431875,-261.986228,-203.386493,9920.158392
0.432188,-307.099335,22.803230,9724.792460
0.432500,-458.043902,26.846484,9746.540871
0.432812,-392.376672,-50.935698,9863.513329
0.433125,-376.931227,-38.689202,10003.306678
0.433437,-456.821686,40.360279,9696.570365
0.433750,-738.390900,48.046372,9612.324425
0.434063,-568.999330,13.209504,9788.675320
0.434375,-803.865097,70.410503,9841.697688
0.434688,-960.068529,-162.576868,9788.778757
0.435000,-969.324547,-151.146429,9913.643099
0.435312,-1011.818537,47.273037,9870.387735
0.435625,-998.148232,65.795337,9880.806242
0.435937,-1142.778086,63.496571,9736.663441
0.436250,-1243.168431,-32.554035,9679.681400
0.436563,-1205.106808,-23.172024,9786.483835
0.436875,-1091.072050,143.386431,9663.086825
0.437188,-1361.617163,-123.338191,9790.675969
0.437500,-1328.110480,5.924095,9800.489195
0.437812,-1418.023166,-82.149651,9780.043844
0.438125,-1270.257935,-39.561561,9813.055751
0.438437,-1692.534821,20.615876,9853.239970
0.438750,-1510.071213,32.498559,9767.586660
0.439063,-1756.467578,-59.427824,9873.830711
0.439375,-1756.803513,81.495744,9883.357556
0.439688,-1771.768188,119.916652,9888.071590
0.440000,-1562.911697,-61.882142,9793.677488
0.440312,-1931.717630,16.979854,9789.667527
0.440625,-2073.752711,-105.246473,9726.329072
0.440937,-1869.876728,53.623488,9744.241911
0.441250,-2090.860909,76.196588,9726.952441
0.441563,-2092.220369,-62.888146,9844.503835
0.441875,-2122.750316,71.459832,9912.568593
0.442188,-2160.065462,-10.351712,9810.481697
0.442500,-2227.363347,-198.537679,9896.224929
0.442812,-2237.165155,88.439349,9818.622175
0.443125,-2271.312161,14.273452,9787.273429
0.443437,-2276.560855,-16.867594,9792.475745
0.443750,-2420.462749,6.524109,9869.777632
0.444063,-2486.405313,29.162155,9835.497449
0.444375,-2550.605388,-87.432032,9812.450373
0.444688,-2455.889625,-21.598730,9852.286093
0.445000,-2543.545094,41.750775,9835.845100
0.445312,-2530.849736,37.123161,9541.827521
0.445625,-2566.025842,-28.100486,9824.559400
0.445937,-2506.878651,-34.678388,9917.457697
0.446250,-2656.489360,77.211161,9696.622991
0.446562,-2642.897232,-39.259853,9756.092097
0.446875,-2827.930664,99.094618,9805.504777
0.447188,-2845.407347,-192.536492,9862.866529
0.447500,-2809.789654,-111.661126,9752.760946
0.447813,-2906.648331,147.788437,9819.343622
0.448125,-2777.182468,-126.527181,9683.102992
0.448437,-2960.598445,-100.885613,9710.546488
0.448750,-2868.640439,-129.928635,9745.594125
0.449062,-3089.456138,145.601677,9919.533654
0.449375,-2998.417535,-11.945322,9761.586658
0.449688,-2952.903362,27.464727,9863.883841
0.450000,-2960.757981,-74.946123,9760.119232
0.450313,-3096.120563,-18.402905,9826.478104
0.450625,-2955.340988,-48.189459,9732.483782
0.450937,-2895.774963,49.859557,9721.930245
0.451250,-2930.111598,120.037260,9777.284028
0.451562,-3041.335379,120.002548,9604.140619
0.451875,-3040.776305,-136.107583,9917.963101
0.452188,-3092.301870,-42.358294,9691.754887
0.452500,-2949.077894,49.936151,9761.615138
0.452813,-2884.646229,109.757367,9757.696565
0.453125,-3041.026209,-27.814042,9923.925583
0.453437,-3132.197597,-2.966613,9915.853290
0.453750,-2976.245250,69.799015,9830.991490
0.454062,-2929.948848,0.309816,9744.876593
0.454375,-3197.117617,120.360730,9886.650536
0.454688,-2959.510953,-86.003218,9785.591649
0.455000,-2787.117361,-79.971499,9854.116381
0.455313,-2882.766091,-98.353796,9766.192210
0.455625,-2890.995826,-48.057217,9889.716977
0.455937,-2887.947668,-34.199249,9731.032918
0.456250,-2818.726482,35.028090,9801.720737
0.456562,-2961.015738,-66.001914,9639.468166
0.456875,-2933.883886,19.782849,9793.332922
0.457188,-2812.684740,-26.019262,9911.293823
0.457500,-2877.658162,-57.290891,9809.108251
0.457813,-2778.195242,40.861541,9993.847730
0.458125,-2926.484931,205.310075,9898.556910
0.458437,-2685.972506,-90.169603,9905.494130
0.458750,-2650.532926,-24.484985,9915.851768
0.459062,-2685.044129,-94.335358,9788.667714
0.459375,-2644.212136,31.385787,9777.755026
0.459688,-2495.136085,-55.765172,9771.360750
0.460000,-2677.468003,182.230544,9815.588720
0.460313,-2628.531520,10.113942,9767.678325
0.460625,-2606.285327,-84.446033,9744.635238
0.460938,-2514.722093,-129.590707,10077.476515
0.461250,-2522.278028,107.158179,9767.788536
0.461562,-2397.763223,71.521409,9778.895513
0.461875,-2410.845762,124.494835,9803.664262
0.462187,-2431.517770,-94.638874,9811.853457
0.462500,-2395.159752,14.666735,9644.916205
0.462813,-2128.555388,-79.503143,9891.515523
0.463125,-2184.146168,141.717317,9843.854046
0.463438,-2148.799705,-110.864670,9833.889479
0.463750,-2079.316937,86.547936,9831.443053
0.464062,-2037.739057,24.536945,9708.527307
0.464375,-1919.271797,17.360644,9710.071676
0.464687,-1882.320044,10.714082,9739.317552
0.465000,-1920.973163,28.214657,9751.971087
0.465313,-1885.157589,53.496251,9780.708104
0.465625,-1850.702930,-51.098785,9839.416249
0.465938,-1807.385013,-54.075072,9693.914737
0.466250,-1537.720507,-22.402368,9710.743624
0.466562,-1664.910915,5.000637,9860.788842
0.466875,-1693.935127,21.983472,9777.025795
0.467187,-1539.872606,-2.103791,9764.829019
0.467500,-1474.635004,34.717889,9838.497757
0.467813,-1323.571625,30.954485,9790.023427
0.468125,-1358.485624,75.329054,9774.973070
0.468438,-1181.760186,29.378744,9947.766494
0.468750,-1129.710859,-121.521906,9787.333604
0.469062,-995.051863,-84.016420,9948.563902
0.469375,-858.030472,-28.129262,9835.303307
0.469687,-737.890028,40.555788,9770.156184
0.470000,-791.603409,-124.143430,9773.371418
0.470313,-925.804410,67.774419,9759.433928
0.470625,-798.248263,-77.477492,9688.473534
0.470938,-678.545934,118.787112,9717.862516
0.471250,-464.950099,77.338944,9784.582582
0.471562,-507.946963,29.645708,9834.130690
0.471875,-397.153230,115.905999,9855.214238
0.472187,-438.392523,76.742418,9736.680762
0.472500,-308.050885,-54.926449,9862.158537
0.472813,-228.396673,101.800195,9848.955443
0.473125,-252.753683,-182.328097,9919.101833
0.473438,-84.315831,-53.857255,9834.711600
0.473750,9.015874,-115.871240,9894.641042
0.474062,-19.396833,39.406814,9673.745195
0.474375,144.675889,75.500952,9951.131401
0.474687,265.004571,-109.503237,9863.448543
0.475000,208.370382,-108.029942,9734.146777
0.475313,272.906350,-51.578862,9728.357904
0.475625,317.803182,-32.326659,9748.644720
0.475938,362.559397,-34.276680,9811.087626
0.476250,493.929244,27.258936,9851.136622
0.476562,517.587263,108.771776,9926.332474
0.476875,594.396385,162.670033,9851.617567
0.477187,625.984114,187.708613,9784.555403
0.477500,633.137383,58.281444,9804.196334
0.477812,748.810960,-21.021350,9858.131973
0.478125,917.453328,-15.110442,9812.549381
0.478438,863.361809,-42.802054,9768.905710
0.478750,972.553308,-16.437552,9867.547930
0.479063,1221.604266,86.002692,9776.289741
0.479375,1245.617976,-27.372307,9826.592636
0.479687,1164.677087,-53.956583,9706.997098
0.480000,1332.426423,18.237899,9910.247948
0.480312,1295.454865,-67.373087,9775.181628
0.480625,1540.286763,-70.389557,9850.892894
0.480938,1425.070816,37.126224,9708.195373
0.481250,1539.520049,-86.900949,9888.587171
0.481563,1703.998820,109.164896,9818.423531
0.481875,1586.356117,-101.197442,9707.683236
0.482187,1815.427933,-52.098735,9753.484810
0.482500,1703.221376,25.386984,9797.586395
0.482812,1844.265768,-28.978230,9792.183840
0.483125,1857.161357,58.242094,9745.507197
0.483438,1928.306304,23.697420,9681.902616
0.483750,2001.714322,-26.611814,9690.053472
0.484063,2035.393146,-66.563575,9693.720452
0.484375,2011.270375,148.665982,9736.040768
0.484687,2212.152646,33.023702,9807.716972
0.485000,2249.462174,-16.420245,9777.188882
0.485312,2342.793572,-42.649209,9830.681352
0.485625,2396.956900,-24.712499,10039.078391
0.485938,2223.937352,1.101285,9769.701072
0.486250,2478.301960,59.446416,9742.691053
0.486563,2521.972544,18.198490,9879.327513
0.486875,2416.928041,-25.719272,9850.932533
0.487187,2582.489883,-97.724411,9852.722877
0.487500,2655.558324,-60.978296,9911.637797
0.487812,2532.184341,-169.835337,9704.091784
0.488125,2500.748312,46.528020,9822.048964
0.488438,2616.588801,33.864056,9873.557295
0.488750,2901.594775,103.314646,9871.340029
0.489063,2728.409191,-93.419066,9801.123256
0.489375,2642.186041,97.775274,9876.208724
0.489687,2747.367219,71.987554,9894.067021
0.490000,2714.807086,184.818286,9800.686020
0.490312,2787.548280,-193.345712,9694.089571
0.490625,2850.676924,-123.853622,9766.633173
0.490938,2660.112376,-124.924246,9806.198664
0.491250,2914.232765,3.785552,9717.875359
0.491563,3017.307307,-6.204803,9720.245009
0.491875,2905.437275,2.701954,9805.010990
0.492188,2906.052692,-19.678853,9787.232331
0.492500,3037.934864,-4.833663,9757.540950
0.492812,2861.224016,41.337198,9854.960799
0.493125,2873.310740,-39.742242,9882.723377
0.493437,2870.477467,-40.873650,9762.973007
0.493750,2976.173192,-34.527848,9887.032571
0.494063,3025.627427,-159.077761,9674.248031
0.494375,2990.495086,41.845980,9798.404242
0.494688,3043.648498,-50.364998,9829.969007
0.495000,3066.338471,-20.150218,9848.062971
0.495312,3038.102591,-1.402968,9745.045315
0.495625,2930.464264,70.344918,9752.765874
0.495937,2968.774008,83.730370,9776.760763
0.496250,3083.429823,112.065525,9838.104947
0.496563,2891.470617,-1.731764,9694.535886
0.496875,2944.856513,-10.854656,9737.637576
0.497188,2919.966620,12.590103,9794.638489
0.497500,2925.457675,-4.780077,9803.602887
0.497812,2838.631524,41.437850,9919.335494
0.498125,2799.869406,-43.655970,9892.361758
0.498437,3093.742981,-54.142252,9719.529568
0.498750,2944.715250,-105.508274,9819.412536
0.499063,2790.148425,2.660543,9800.619820
0.499375,2818.903380,-151.174593,9831.160848
0.499688,2852.579942,-11.267240,9821.176646
0.500000,2744.145719,-29.703308,9834.516911
0.500313,2792.542187,196.392058,9836.472307
0.500625,2663.980273,109.985419,9749.682102
0.500938,2652.920140,-20.012659,9928.942400
0.501250,2641.653653,82.651374,9774.480909
0.501563,2577.118975,34.654041,9912.127015
0.501875,2381.245521,-5.748616,9929.945646
0.502188,2541.404818,-82.673833,9867.607312
0.502500,2521.392673,17.256127,9785.708140
0.502812,2497.839029,-154.947013,9866.020960
0.503125,2338.057158,-36.302736,9753.751895
0.503437,2401.523638,-6.099551,9771.777730
0.503750,2346.246899,-40.798209,9899.408235
0.504062,2141.116275,20.361827,9749.308152
0.504375,2058.747168,-104.406469,9735.251710
0.504687,2223.975788,-16.107019,9834.190997
0.505000,2059.182575,-46.248488,9825.502628
0.505313,2164.084343,-48.699595,9828.237890
0.505625,2202.288010,88.146133,9797.822629
0.505938,1930.380299,-92.275533,9866.435861
0.506250,1866.607101,69.794574,9814.833050
0.506563,1864.434465,-103.863359,9936.067809
0.506875,1861.844499,-58.399637,9731.456572
0.507188,1658.411186,58.397838,9663.472244
0.507500,1789.272271,-4.367199,9841.634210
0.507812,1708.274728,-41.021234,9851.878050
0.508125,1620.225688,25.502995,9799.328780
0.508437,1461.563063,-133.937368,9843.246247
0.508750,1514.556609,-23.403861,9806.681897
0.509062,1445.457029,90.105260,9640.800711
0.509375,1215.592462,-132.744613,9679.875369
0.509687,1412.875264,-39.983594,9828.794932
0.510000,1154.847198,-58.294429,9877.978892
0.510312,1140.930351,37.329531,9788.465351
0.510625,1001.285596,-110.969686,9812.934775
0.510938,1005.188526,17.632171,9750.430757
0.511250,997.778506,-96.291213,9832.661650
0.511563,770.394537,-104.980091,9786.432827
0.511875,632.040090,-76.472810,9572.356104
0.512188,657.484871,39.829838,9733.122061
0.512500,517.570774,-47.687465,9766.239275
0.512813,489.542687,-118.646775,9984.970304
0.513125,467.929643,-49.703019,9818.144496
0.513437,400.423913,20.598135,9780.412624
0.513750,436.054463,5.904164,9745.636969
0.514062,178.626558,-67.917743,9920.897716
0.514375,214.859447,-9.382330,9848.260538
0.514687,72.731414,160.706039,9822.970360
0.515000,149.140880,68.708489,9791.697495
0.515312,168.701091,132.501282,9818.588782
0.515625,-82.697300,90.983323,9602.414717
0.515938,-46.457355,-45.087894,9803.367934
0.516250,-296.147550,60.179444,9860.002069
0.516563,-454.896187,31.679534,9811.183994
0.516875,-501.618006,-15.107290,9869.825207
0.517188,-599.141492,-13.980797,9853.909952
0.517500,-621.763995,-65.932048,9788.828283
0.517813,-636.868820,-148.673818,9803.398997
0.518125,-597.563891,21.403491,9814.329043
0.518437,-705.114025,10.695873,9695.893242
0.518750,-795.098311,-126.720442,9805.010491
0.519062,-936.717563,35.010950,9817.054747
0.519375,-1030.670243,165.354480,9791.628237
0.519687,-1039.790954,-31.734761,9777.588263
0.520000,-1100.367174,-2.580812,9777.456897
0.520312,-1159.163041,-8.598408,9882.725166
0.520625,-1217.524393,-8.124463,9797.001775
0.520938,-1323.512726,2.983861,9681.188300
0.521250,-1534.157100,69.737665,9713.985130
0.521563,-1534.669275,47.356992,9784.229946
0.521875,-1575.908803,-98.351872,9767.115266
0.522188,-1437.634314,-117.119047,9697.780071
0.522500,-1670.132075,128.885338,9799.176200
0.522813,-1643.549767,53.151076,9814.300775
0.523125,-1641.001839,-87.906271,9743.388350
0.523438,-1791.008322,3.329827,9876.852075
0.523750,-1907.547768,-50.850282,9658.763318
0.524062,-1956.902739,63.812789,9801.013421
0.524375,-2071.394354,24.064856,9878.253697
0.524687,-2020.039300,9.088166,9820.598850
0.525000,-2008.042893,-3.790503,9777.083661
0.525312,-2105.161918,174.250175,9916.033185
0.525625,-2140.198512,46.689468,9675.804398
0.525937,-2194.312322,15.177791,9835.085232
0.526250,-2139.861639,-44.204061,9790.778360
0.526563,-2397.947696,-68.016224,9752.524590
0.526875,-2380.271890,102.171908,9804.910220
0.527188,-2380.609189,-14.667881,9949.771333
0.527500,-2379.952948,40.925966,9919.280038
0.527813,-2715.118188,74.302117,9823.351466
0.528125,-2602.325158,-27.068016,9827.032054
0.528438,-2615.280704,14.382309,9749.050304
0.528750,-2717.425328,-40.868919,9927.960509
0.529062,-2602.154275,-167.232524,9817.276957
0.529375,-2685.618676,-28.326446,9869.426528
0.529687,-2766.403771,-60.788582,9756.392539
0.530000,-2895.283195,-23.208895,9708.400997
0.530312,-2898.616541,116.021828,9774.774526
0.530625,-2897.978853,21.000110,9801.480783
0.530937,-2807.462272,77.778568,9768.049952
0.531250,-2964.323875,14.547605,9850.015367
0.531563,-3053.497444,-29.963547,9951.918342
0.531875,-3023.514189,-83.319205,9695.319369
0.532188,-2972.234706,-43.320053,9703.581634
0.532500,-2806.763101,-16.711436,9927.456574
0.532813,-2754.388833,-62.098328,9828.605239
0.533125,-3005.131755,-11.026287,9844.516269
0.533438,-2901.341483,-36.989820,9933.960652
0.533750,-2873.124142,-33.284041,9750.627466
0.534062,-2888.963461,-50.649565,9887.183699
0.534375,-3005.704342,93.116747,9910.887191
0.534687,-3103.286462,-12.588318,9722.838517
0.535000,-3039.063329,-89.310089,9846.849460
0.535312,-3147.954108,-125.761659,9833.052766
0.535625,-2977.017501,85.057222,9739.655493
0.535937,-2929.137784,11.952681,9797.565609
0.536250,-3136.122592,-4.794545,9818.671989
0.536563,-2980.294234,62.982860,9848.590921
0.536875,-2942.348248,-165.958823,9791.904470
0.537188,-2853.506274,-62.799095,9717.423604
0.537500,-2829.010334,-78.776722,9791.930773
0.537813,-2859.186452,-131.220116,9863.681065
0.538125,-2960.363366,-92.539423,9901.541878
0.538438,-2915.186145,30.763267,9819.664318
0.538750,-2767.836540,-106.745419,9808.914970
0.539062,-2889.293728,-33.171689,9965.815537
0.539375,-2819.034785,-10.469177,9682.065119
0.539687,-2663.830397,3.967038,9911.867780
0.540000,-2749.726752,133.372510,9688.965510
0.540312,-2839.418649,151.861403,9806.497441
0.540625,-2720.860379,116.144823,9729.038163
0.540937,-2612.097507,-82.493799,9658.514299
0.541250,-2642.793880,-167.312331,9752.443653
0.541562,-2497.301576,107.931907,9807.049401
0.541875,-2448.621933,114.713962,9742.515098
0.542188,-2562.584439,-109.061850,9856.423790
0.542500,-2508.532373,-50.585943,9817.816767
0.542813,-2432.714538,21.039493,9809.076813
0.543125,-2475.077479,-74.676902,9903.245558
0.543438,-2301.740673,-85.659062,9938.345058
0.543750,-2297.905945,-104.263947,9847.731490
0.544063,-2170.714451,-5.719690,9847.753712
0.544375,-2230.133737,-65.126347,9746.651804
0.544687,-2199.684747,12.506949,9838.208504
0.545000,-1928.074306,-83.207458,9788.162904
0.545312,-2089.885631,-6.387576,9757.545499
0.545625,-2009.515177,-160.332607,9741.399458
0.545937,-1963.108640,49.002438,9849.566016
0.546250,-1869.478342,58.754380,9829.745592
0.546562,-1857.782437,53.057696,9918.104201
0.546875,-1726.317202,100.364509,9657.978230
0.547188,-1716.195870,-137.518245,9922.455700
0.547500,-1629.150533,128.207564,9910.896778
0.547813,-1501.717342,-91.058124,9703.604515
0.548125,-1408.547009,-60.976043,9811.353225
0.548438,-1360.276695,-90.871841,9754.970858
0.548750,-1388.552868,23.818614,9695.122525
0.549063,-1229.043199,105.394886,9751.619359
0.549375,-1200.761402,155.913153,9709.539517
0.549687,-1129.141953,8.713217,9812.723640
0.550000,-1187.185480,-95.657994,9798.336234
0.550312,-923.744514,-10.093336,9712.618013
0.550625,-916.012226,-69.719974,9794.511036
0.550937,-695.122790,-5.903450,9775.354619
0.551250,-706.629923,44.152483,9929.199752
0.551562,-772.854320,104.790318,9697.435846
0.551875,-718.532120,-192.915412,9827.337617
0.552188,-441.479189,10.561802,9758.740289
0.552500,-527.973758,117.491818,9904.627759
0.552813,-327.326088,-27.377783,9895.013158
0.553125,-329.972377,59.951876,9738.929984
0.553438,-61.202778,-27.778271,9871.639624
0.553750,-146.516228,11.199671,9839.915151
0.554063,45.034743,-5.642760,9654.985780
0.554375,107.285848,54.842929,9725.392967
0.554688,40.477080,50.016291,9854.405621
0.555000,128.060893,-64.251806,9856.798394
0.555312,350.014915,40.380124,9915.924179
0.555625,308.004126,-37.425946,9749.349027
0.555937,314.991951,-64.160403,9895.678327
0.556250,557.121320,-42.498365,9773.723628
0.556562,742.722514,-119.928066,9927.220825
0.556875,609.634210,-40.356759,9764.786287
0.557187,800.189648,-46.367480,9889.871907
0.557500,750.303849,20.301312,9874.500866
0.557813,946.283231,-37.918150,9806.452911
0.558125,892.646116,3.320884,9817.821922
0.558438,1091.850903,-12.600326,9833.244982
0.558750,1101.561859,-55.392964,9814.718088
0.559063,1115.483065,-58.208799,9818.632472
0.559375,1220.478228,-43.104268,9733.516262
0.559688,1228.758645,-167.288318,9905.620979
0.560000,1251.798830,67.164700,9812.416972
0.560312,1326.280728,3.779491,9878.654360
0.560625,1474.257981,68.467975,9836.129256
0.560937,1461.220198,12.628788,9742.520471
0.561250,1647.137779,66.595655,9918.819472
0.561562,1719.449212,52.287049,9686.204847
0.561875,1778.485880,-197.682797,9807.771412
0.562187,1763.812327,-35.455952,9857.871864
0.562500,1869.639769,95.619543,9886.233432
0.562813,1923.359736,-19.093955,9884.175452
0.563125,2090.265049,103.260976,9644.990532
0.563438,1977.547019,73.252681,10022.835893
0.563750,2067.679466,-101.698262,9798.648264
0.564063,2134.713273,-61.627275,9833.235027
0.564375,2195.501962,-18.673935,9750.819207
0.564688,2199.028858,-86.801381,9813.111565
0.565000,2259.241271,-27.572872,9837.926787
0.565312,2439.893817,7.742714,9831.100130
0.565625,2354.976388,6.973545,9912.137972
0.565937,2525.332391,13.581112,9730.047399
0.566250,2659.032147,-11.646217,10051.472421
0.566562,2641.047227,-9.561055,9716.270827
0.566875,2434.926881,254.340665,9828.123876
0.567187,2680.670879,57.514171,9719.403745
0.567500,2694.449944,-49.539995,9763.551849
0.567813,2735.343869,51.650400,9847.786487
0.568125,2595.418787,-92.809806,9943.739169
0.568438,2818.303158,-139.780948,9692.775882
0.568750,2700.489039,-114.417265,9693.823822
0.569063,2919.444295,49.215225,9789.040536
0.569375,2927.962130,101.662040,9688.320905
0.569688,3070.590782,-167.423728,9700.068587
0.570000,2858.087456,84.410384,9813.598335
0.570312,2787.498957,-94.937871,9907.796521
0.570625,3011.953990,157.815681,9720.673692
0.570937,3014.572194,61.831955,9814.577780
0.571250,2928.591275,19.136981,9827.491555
0.571562,3080.705531,8.249469,9903.576479
0.571875,3037.548529,8.769267,9757.793436
0.572187,2887.904665,-38.090745,9733.544299
0.572500,2969.373392,-20.047069,9774.810903
0.572812,2966.311087,17.281610,9839.923487
0.573125,2995.687225,6.012814,9751.995581
0.573438,3020.247576,-34.970030,9731.739629
0.573750,2947.573301,-97.192327,9832.461041
0.574063,2983.753698,37.532211,9885.438089
0.574375,3041.002857,-85.970355,9836.198235
0.574688,2980.131196,9.968320,9717.454465
0.575000,2954.564396,-15.447934,9814.605618
0.575313,2939.941511,31.630310,9872.163419
0.575625,2942.387996,-2.351990,9910.522196
0.575937,2781.213632,-64.508017,9926.929553
0.576250,2929.364156,72.274069,9806.255390
0.576562,2814.274148,-75.005211,9797.368810
0.576875,2883.110485,-74.131545,9741.510114
0.577187,2732.895765,-127.514599,9681.395248
0.577500,2898.566860,-13.385188,9892.805397
0.577812,2815.887397,-63.468840,9759.365692
0.578125,2659.027988,52.150191,9793.950748
0.578438,2754.412376,-15.714622,9793.226793
0.578750,2641.048198,30.067565,9899.322444
0.579063,2810.476324,38.776108,9745.341154
0.579375,2668.322066,48.120053,9835.912576
0.579688,2526.141977,37.438528,9752.158853
0.580000,2566.952433,23.482137,9728.852161
0.580313,2503.627636,30.387782,9794.805875
0.580625,2557.637295,-14.325315,9876.766151
0.580937,2444.181130,-43.406431,9903.583738
0.581250,2408.867122,-178.187249,9924.673774
0.581562,2228.759412,32.942101,9827.245965
0.581875,2330.503622,83.543129,9865.208726
0.582187,2381.899855,22.467563,9769.169581
0.582500,2211.039706,-85.066349,9763.428828
0.582812,2101.068054,37.286156,9886.974572
0.583125,2060.016878,-155.688033,9665.034767
0.583438,1911.886987,-50.834169,9867.037291
0.583750,1942.840958,196.859799,9735.643530
0.584063,1778.532161,67.533308,9879.770184
0.584375,1807.073288,10.585263,9854.177040
0.584688,1708.344260,18.339884,9942.256160
0.585000,1607.542135,-179.959634,9823.089171
0.585313,1653.875585,-68.629810,9942.804527
0.585625,1420.539292,130.452796,9869.655426
0.585938,1467.669320,36.019946,9760.764281
0.586250,1295.005139,40.108769,9852.005025
0.586562,1476.575886,99.362307,9740.651121
0.586875,1416.333404,10.251636,9764.967060
0.587187,1253.300815,-20.610596,9725.779648
0.587500,1263.766393,-14.983045,9628.894708
0.587812,1085.013982,76.615516,9735.758954
0.588125,1005.774217,-87.382775,9762.440469
0.588437,852.463899,132.972879,9745.934307
0.588750,738.320745,-26.957827,9856.004740
0.589063,743.064631,46.149761,9750.060658
0.589375,612.334948,222.838497,9754.698139
0.589688,541.992125,23.470374,9791.096182
0.590000,556.775855,-23.831701,9848.717114
0.590313,409.281248,-97.317533,9787.322709
0.590625,215.339058,18.757085,9826.828033
0.590938,243.321058,95.447058,9805.569499
0.591250,119.802626,71.713803,9736.260265
0.591562,77.391971,-123.397938,9662.121674
0.591875,-66.863045,78.471593,9871.269334
0.592187,36.940367,57.257058,9868.855574
0.592500,13.148148,-15.114740,9774.790614
0.592812,-307.947597,-181.383348,9845.336615
0.593125,-246.929529,4.755951,9824.608685
0.593437,-330.588518,-90.811543,9859.676655
0.593750,-543.746812,90.701872,9791.282592
0.594063,-528.758836,-56.479370,9859.125780
0.594375,-502.656135,-15.747240,9810.323155
0.594688,-626.085254,58.684702,9796.779860
0.595000,-642.135869,74.144997,9822.086369
0.595313,-942.621741,-41.984071,9721.943282
0.595625,-985.451025,-0.500360,9636.745197
0.595938,-978.514704,16.925558,9826.865777
0.596250,-1048.879323,-44.972354,9744.692484
0.596562,-1149.934513,-63.432947,9800.385513
0.596875,-1256.694991,-33.435715,9724.231646
0.597187,-1331.575269,-29.567691,9788.107777
0.597500,-1419.431397,7.698548,9827.521159
0.597812,-1405.847002,95.728396,9826.596550
0.598125,-1732.795585,-11.206473,9761.693383
0.598437,-1453.053509,-0.174378,9908.312765
0.598750,-1691.153935,-1.088029,9731.851296
0.599063,-1830.096360,-63.638690,9839.701026
0.599375,-1737.614663,-59.018263,9808.284404
0.599688,-1957.835735,-26.149978,9809.541435
0.600000,-1877.453479,191.128621,9590.823836
0.600313,-2002.051739,9.070074,9826.053896
0.600625,-1982.817307,65.188525,9631.985132
0.600938,-2025.633822,44.506008,9775.597023
0.601250,-2042.418221,89.425060,9688.155274
0.601562,-2241.295795,-46.000292,9730.657358
0.601875,-2279.044078,-78.061424,9797.087877
0.602187,-2309.192008,19.087609,9903.701984
0.602500,-2472.175831,21.828485,9822.272204
0.602812,-2360.627992,106.930001,9699.467889
0.603125,-2445.099806,-12.431653,9777.630156
0.603437,-2608.205160,-133.646223,9895.114268
0.603750,-2447.858980,-50.127389,9837.914196
0.604062,-2477.306986,50.024330,10053.866840
0.604375,-2731.954389,86.467522,9835.961830
0.604688,-2618.914436,13.693420,9883.908595
0.605000,-2600.790663,23.254159,9628.899893
0.605313,-2667.846528,-14.276256,9769.553241
0.605625,-2845.734448,-9.739798,9784.242981
0.605938,-2909.237606,35.684761,9754.894640
0.606250,-2834.848870,-23.850909,9869.347853
0.606563,-2891.391162,-207.556738,9673.968514
0.606875,-2876.341285,65.791477,9864.464990
0.607187,-2905.832746,-42.603395,9878.003184
0.607500,-2875.178957,-158.670335,9847.681267
0.607812,-2979.853539,-99.466778,9782.129609
0.608125,-2963.428483,32.591559,9753.155148
0.608437,-2726.340610,187.397408,9781.269212
0.608750,-2985.303799,104.983473,9925.577041
0.609062,-2924.939893,15.164018,9939.848069
0.609375,-2967.529622,-51.833871,9810.370428
0.609688,-2977.701136,-73.225471,9829.734057
0.610000,-3070.424318,122.295511,9845.677815
0.610313,-2955.407562,-28.498597,9781.761399
0.610625,-2999.580552,53.898748,9771.189304
0.610938,-2925.714950,-43.245985,9771.118805
0.611250,-2820.457152,-38.472087,9915.810296
0.611563,-2961.007276,-16.880874,9780.131846
0.611875,-2903.867605,32.660317,9807.665035
0.612187,-3033.460320,-57.291242,9706.239020
0.612500,-2926.828756,141.462675,9858.351640
0.612812,-2794.470291,-48.228814,9672.854278
0.613125,-2903.611524,89.172086,9911.522744
0.613437,-2927.842533,50.297828,9730.660692
0.613750,-2836.278798,32.498866,9754.781159
0.614062,-2841.341524,59.559481,9896.043341
0.614375,-2817.470771,38.658200,9781.473575
0.614688,-2797.593638,-99.359991,9823.181412
0.615000,-2576.329563,39.713280,9778.173567
0.615313,-2770.365678,168.394100,9889.978277
0.615625,-2697.110033,30.292805,9977.324175
0.615938,-2671.095005,-201.683660,9842.780196
0.616250,-2485.665386,-1.674724,9809.753726
0.616563,-2564.640736,105.462499,9809.747869
0.616875,-2393.521194,57.785189,9715.582312
0.617188,-2438.193582,-110.791426,9709.023589
0.617500,-2405.175138,44.334109,9757.788914
0.617812,-2470.135630,63.902186,9665.252519
0.618125,-2204.549869,-189.611409,9951.681044
0.618437,-2204.619276,32.936803,9823.486492
0.618750,-2160.219067,105.262601,9833.043090
0.619062,-2145.070775,-71.905334,9938.739442
0.619375,-2110.436437,121.849958,9761.313941
0.619687,-2118.386543,-78.124152,9865.145891
0.620000,-1879.575854,93.615106,9749.563477
0.620313,-1870.518676,-13.421312,9923.803669
0.620625,-1856.111150,29.914495,9846.691129
0.620938,-1811.754551,21.251956,9624.036305
0.621250,-1684.631721,106.143457,9806.641193
0.621563,-1632.468768,7.686661,9791.591487
0.621875,-1423.798562,-61.484104,9871.219573
0.622188,-1422.142137,-18.495050,9782.671470
0.622500,-1459.415084,-25.218752,9720.146341
0.622812,-1426.757054,157.928819,9739.778829
0.623125,-1282.721807,-102.011467,9792.793337
0.623437,-1261.327356,30.538073,9770.494039
0.623750,-1105.933950,56.328148,9782.341374
0.624062,-1002.426732,-21.439523,9821.085571
0.624375,-905.764664,-65.439026,9901.807737
0.624687,-844.517238,79.373036,9807.102751
0.625000,-813.487849,18.271800,9915.219332
0.625313,-670.020580,-1.841617,9669.468802
0.625625,-708.418663,87.502643,9932.071459
0.625938,-562.273359,61.810303,9725.230786
0.626250,-409.274294,33.082961,9863.447266
0.626563,-369.112927,-43.450374,9856.951744
0.626875,-411.401073,30.632537,9884.534929
0.627188,-319.404958,-107.801671,9763.781179
0.627500,-273.282786,-3.236768,9811.312396
0.627812,83.303246,144.505321,9802.941576
0.628125,-101.874571,94.144311,9947.177876
0.628437,94.194840,49.207626,9983.605105
0.628750,335.259991,-32.351592,9854.784408
0.629062,357.472180,62.896825,9763.741789
0.629375,459.458791,48.334235,9785.284788
0.629687,396.700302,14.109193,9837.586933
0.630000,577.967935,114.335535,9852.617875
0.630313,844.329853,45.560774,9740.954313
0.630625,679.189803,55.618858,9729.586717
0.630938,796.099426,-61.294866,9830.754511
0.631250,818.157082,89.357253,9913.475606
0.631563,922.054445,-53.457282,9870.236931
0.631875,1032.053588,-10.163629,9765.013854
0.632188,1191.394507,60.173271,9815.077653
0.632500,1085.910482,31.389847,9789.313480
0.632812,1120.271725,-50.012993,9794.604284
0.633125,1312.294941,-99.825491,9770.431382
0.633437,1401.364576,136.199944,9885.475843
0.633750,1571.486708,-88.916252,9785.788958
0.634062,1588.530219,-111.798434,9650.759834
0.634375,1552.536377,-105.724497,9751.934987
0.634687,1717.973087,56.783371,9841.040447
0.635000,1830.791056,24.344486,9777.845065
0.635312,1831.928687,77.400136,9789.060701
0.635625,1847.990168,5.152788,9877.140172
0.635938,1994.011861,-191.387309,9779.764026
0.636250,1974.692238,35.376896,9811.764029
0.636563,1915.363725,31.237273,9799.438769
0.636875,2231.273073,140.308072,9806.023654
0.637188,2080.028342,-31.777636,9812.177966
0.637500,2213.143588,-39.973933,9877.162049
0.637813,2269.618282,-48.537938,9758.411027
0.638125,2321.281762,-27.241335,9904.944559
0.638437,2376.703222,-5.575948,9828.762083
0.638750,2333.778920,43.158411,9846.283171
0.639062,2538.673001,43.317553,9816.639470
0.639375,2544.472931,-89.134348,9550.190657
0.639687,2589.114677,-51.078592,9875.875987
0.640000,2713.400071,97.405934,9685.792778
0.640312,2755.251864,26.327048,9779.193536
0.640625,2811.951907,-0.031502,9741.210563
0.640938,2888.334324,41.823911,9742.117767
0.641250,2809.861474,-65.481211,9926.268798
0.641563,2681.700328,-65.528764,9716.925335
0.641875,2850.733478,42.364695,9719.103473
0.642188,2861.472109,-55.168591,9855.704652
0.642500,2890.439475,-3.476907,9697.690704
0.642813,2859.104244,-130.562942,9849.082236
0.643125,2855.948103,21.268098,9891.667875
0.643437,3008.387118,-105.785387,9757.078227
0.643750,3037.560185,-44.489664,9818.910216
0.644062,2883.493392,-63.807832,9784.787717
0.644375,3026.686237,-1.246172,9698.357579
0.644687,2978.238812,-119.661583,9798.607562
0.645000,2966.603248,94.442538,9718.256989
0.645312,3055.855988,-23.940759,9707.354255
0.645625,2998.109775,71.036145,9695.554080
0.645938,2956.571819,-70.755189,9736.849997
0.646250,3001.674572,-17.173726,9822.062116
0.646563,2831.385890,6.052788,9958.376355
0.646875,2935.240395,-7.944344,9902.632015
0.647188,2936.570532,-85.064307,9940.636171
0.647500,2846.640082,69.568595,9905.885371
0.647813,2957.015347,-61.424809,9791.970846
0.648125,2946.364432,82.988593,9700.411364
0.648438,2856.309538,-35.488522,9804.476659
0.648750,2868.188480,97.252031,9851.633011
0.649062,2910.683951,31.170063,9831.209917
0.649375,2914.361121,46.740303,9856.081583
0.649687,2739.246241,-17.419785,9791.396592
0.650000,2795.394963,-190.670486,9792.514220
0.650312,2817.234456,-39.071392,9747.606971
0.650625,2695.624365,40.818434,9908.172291
0.650937,2597.906472,-109.238643,9853.413007
0.651250,2557.742275,-50.206512,9683.000456
0.651563,2550.630673,48.671417,9903.681892
0.651875,2449.014714,-104.657228,9682.288089
0.652188,2645.869244,-17.954919,9803.900580
0.652500,2390.435260,-133.868236,9829.413226
0.652813,2415.500174,-55.516223,9819.106442
0.653125,2347.179922,83.663482,9714.280187
0.653438,2328.862738,37.126446,9826.919896
0.653750,2190.597023,73.035533,9931.482182
0.654062,2059.218370,-104.791295,9831.462975
0.654375,2234.116869,99.892700,9792.713071
0.654687,2035.019772,-7.353871,9900.507663
0.655000,1987.190617,-132.883417,9741.961960
0.655312,1928.846443,-29.533853,9582.380829
0.655625,1947.167465,112.175585,9715.090142
0.655937,1839.655221,-35.881943,9634.550533
0.656250,1802.486704,-98.734316,9771.383069
0.656563,1703.410206,-86.398195,9683.056243
0.656875,1577.559984,38.942993,9973.245938
0.657188,1512.046661,44.222130,9817.633353
0.657500,1357.419829,-8.176842,9845.904815
0.657813,1185.747203,33.364789,9837.093741
0.658125,1244.540678,22.316802,9682.629636
0.658438,1099.643573,-22.798637,9905.073266
0.658750,1313.237723,-52.350785,9795.525252
0.659062,1150.848951,10.253440,9982.492668
0.659375,1038.795560,155.092949,9887.999315
0.659687,819.293936,-117.462937,9716.743322
0.660000,945.530045,-83.691934,9933.239980
0.660312,561.305542,-12.861281,9715.941283
0.660625,517.179427,28.422271,9767.276271
0.660937,467.070173,258.746779,9780.316646
0.661250,368.124855,159.550229,9843.483000
0.661563,370.200750,62.914546,9796.534359
0.661875,289.619890,-20.295423,9800.080529
0.662188,341.171728,-53.141919,9753.535293
0.662500,182.242487,-40.776535,9760.028342
0.662813,114.091507,-63.350944,9751.731105
0.663125,-36.173458,-30.092410,9817.294479
0.663438,-167.469222,9.933136,9783.866181
0.663750,-296.541339,176.688110,9808.207411
0.664062,-448.126373,-87.825252,9639.089146
0.664375,-482.495857,31.425707,9727.218200
0.664687,-528.594786,-10.218329,9705.106745
0.665000,-521.923240,99.071771,9805.830419
0.665312,-802.231783,-78.378947,9712.220856
0.665625,-860.460607,-52.124056,9622.230677
0.665937,-816.843568,-42.240475,9895.206375
0.666250,-1000.899252,-13.404119,9807.930759
0.666562,-971.997589,-32.029147,9796.699335
0.666875,-1112.809928,36.488853,9898.567166
0.667188,-1220.189904,-62.379628,9793.358088
0.667500,-1345.925289,87.650532,9871.721049
0.667813,-1325.025397,-33.864273,9669.967490
0.668125,-1452.962747,-98.190194,9780.901841
0.668438,-1519.726171,91.963354,10011.493417
0.668750,-1596.494892,-41.134918,9772.281669
0.669063,-1604.163397,-102.434685,9813.771139
0.669375,-1679.467767,-34.463453,9887.276303
0.669687,-1899.280173,0.582947,9706.005074
0.670000,-1844.477486,-144.951772,9748.766392
0.670312,-1867.623687,97.307643,9721.345472
0.670625,-1882.683458,71.216033,9752.880525
0.670937,-1967.873500,27.486476,9767.936999
0.671250,-2076.788950,76.032270,9901.970139
0.671562,-2246.232451,-59.738486,9731.404168
0.671875,-2275.929999,20.573208,9841.271221
0.672188,-2198.832013,-20.953717,9804.196275
0.672500,-2383.943039,59.406008,9651.492925
0.672813,-2299.506565,18.782004,10002.652551
0.673125,-2331.545497,48.399360,9808.151249
0.673438,-2568.263910,-9.131751,9894.889487
0.673750,-2495.795600,-106.224992,9892.156514
0.674063,-2585.651488,20.885081,9757.761802
0.674375,-2457.955762,-2.379968,9760.797087
0.674687,-2594.421734,-34.524210,9759.851898
0.675000,-2741.365636,-26.950631,9725.856533
0.675312,-2704.742801,76.335520,9712.149055
0.675625,-2845.242754,-25.726893,9750.411766
0.675937,-2816.117971,0.371254,9866.536275
0.676250,-2817.412944,18.345075,9760.253155
0.676562,-2849.289162,-64.037190,9803.403247
0.676875,-2861.632805,128.164912,9756.935176
0.677188,-2981.390192,137.800116,9677.848265
0.677500,-3077.221925,-38.745895,9782.966622
0.677813,-2975.641894,-55.604635,9887.447226
0.678125,-3033.153805,-141.868111,9927.436079
0.678438,-3030.428685,-145.888709,9861.321679
0.678750,-2813.554963,-140.689245,9562.429416
0.679063,-2899.106948,-60.031945,9808.326342
0.679375,-3011.149697,-81.093649,9848.602646
0.679688,-3114.376907,112.441933,9733.392709
0.680000,-3103.514578,-88.178722,9665.346788
0.680312,-2968.166158,56.206754,9721.834894
0.680625,-2906.362826,19.477203,9799.489181
0.680937,-3007.288828,49.025048,9869.812336
0.681250,-2963.148817,95.725099,9785.754600
0.681562,-2940.780165,-43.929718,9894.915643
0.681875,-2860.544285,-77.117511,9900.797949
0.682187,-3078.430634,-90.460438,9771.015535
0.682500,-2895.160959,-121.362798,9695.535506
0.682813,-2852.345043,-131.270270,9746.809539
0.683125,-2783.453978,-212.744716,9798.250510
0.683438,-2799.987028,86.959255,9880.554516
0.683750,-2889.515014,-218.197993,9716.489966
0.684063,-2815.272922,28.485578,9726.273273
0.684375,-2855.746607,-20.889300,9749.747957
0.684688,-2680.981060,-4.835367,9757.365552
0.685000,-2641.345581,65.618651,9693.345198
0.685312,-2573.788874,33.340310,9913.652103
0.685625,-2648.064125,-81.345295,9725.293478
0.685937,-2615.205778,-69.184824,9895.716830
0.686250,-2353.264417,-18.662393,9631.907732
0.686562,-2409.914705,53.572803,9785.171072
0.686875,-2231.879852,5.316028,9825.272178
0.687187,-2281.413096,-79.149659,9836.982744
0.687500,-2376.496972,-3.240218,9823.798084
0.687813,-2136.149531,260.129213,9897.490095
0.688125,-2040.874834,-136.198060,9713.745595
0.688438,-2112.976381,-125.403156,9765.865950
0.688750,-2166.307946,-32.633815,9744.431791
0.689063,-1892.770492,120.799083,9808.733404
0.689375,-1889.166265,11.960494,9867.301825
0.689688,-1786.030061,111.857355,9839.314533
0.690000,-1951.868077,-36.179880,9851.515200
0.690312,-1627.557382,-25.452824,9626.214983
0.690625,-1809.881448,-12.394144,9668.926301
0.690937,-1583.541274,109.805316,9807.190061
0.691250,-1366.245600,-62.549080,9912.143027
0.691562,-1504.771036,-15.426418,9851.517124
0.691875,-1428.405483,-2.616931,9803.592883
0.692187,-1234.633445,-70.051688,9746.784855
0.692500,-985.198935,-0.503382,9732.819407
0.692813,-904.961271,-65.640059,9685.096004
0.693125,-999.230180,49.828747,9954.984919
0.693438,-786.104533,15.603971,9788.533171
0.693750,-734.469577,-92.439599,9882.723123
0.694063,-673.912481,51.549891,9803.173659
0.694375,-579.814350,124.317234,9747.776885
0.694688,-579.070050,122.299472,9880.339130
0.695000,-369.311182,-154.771209,9762.234617
0.695312,-260.444475,-45.681270,9787.840941
0.695625,-40.847020,36.426866,9813.272292
0.695937,-94.970251,38.556140,9885.858260
0.696250,-275.735260,182.290082,9826.112269
0.696562,-87.001182,-77.860304,9743.714830
0.696875,124.918248,-94.652572,9845.820461
0.697187,192.598340,93.262041,9975.663060
0.697500,126.984697,-186.489381,9816.306099
0.697812,353.148174,-11.319127,9771.060019
0.698125,423.881447,21.222027,9763.460190
0.698438,536.416724,230.079595,9740.164788
0.698750,617.987274,-22.433771,9703.188200
0.699063,788.306786,146.973081,9724.478502
0.699375,918.085387,96.979462,9877.769365
0.699688,941.209084,67.394157,9791.212096
0.700000,882.528514,-160.992990,9746.202601
0.700313,986.297706,198.192522,9866.036998
0.700625,1085.486141,-76.397893,9624.332712
0.700937,1216.071821,69.706499,9869.712649
0.701250,1267.498035,8.121121,9747.636009
0.701562,1353.559875,110.347096,9748.528693
0.701875,1386.477666,-41.044499,9764.862604
0.702187,1613.660929,48.547672,9705.783654
0.702500,1681.938668,55.013693,9807.757052
0.702812,1764.880574,153.374947,9776.706605
0.703125,1755.303495,-13.615840,9598.457154
0.703438,1869.779863,-196.824720,9797.027686
0.703750,1830.554301,-9.615495,9849.431379
0.704063,1890.869949,-92.064913,9802.138561
0.704375,1994.947233,-58.240865,9816.316173
0.704688,2150.080341,104.947871,9954.174795
0.705000,2154.365034,-130.736341,9768.295754
0.705313,2135.976280,3.382746,9766.758566
0.705625,2293.892998,68.338514,9822.375480
0.705937,2377.337257,-75.978013,9798.176794
0.706250,2411.548653,0.822834,9662.762127
0.706562,2398.040614,-35.414057,9848.069259
0.706875,2507.190786,-10.167898,9713.312002
0.707187,2516.744336,-61.734600,9865.781124
0.707500,2570.590501,32.629685,9788.909237
0.707812,2633.318688,-17.230276,9706.085578
0.708125,2742.245329,32.865587,9740.774775
0.708438,2867.081888,-131.563388,9743.330781
0.708750,2882.405902,-34.610223,9719.147035
0.709063,2842.182675,47.414717,9720.600967
0.709375,2791.589608,70.609600,9786.258723
0.709688,2828.052816,-92.486126,9927.409791
0.710000,2858.069142,35.077273,9852.241646
0.710313,2995.500171,-10.034519,9813.672780
0.710625,2703.564453,-61.811075,9763.377195
0.710938,2964.152378,-107.966451,9947.535955
0.711250,2800.213178,-41.914347,9737.156961
0.711562,2972.715772,37.630300,9734.340353
0.711875,3089.716486,19.092384,9762.326126
0.712187,2918.907462,-112.372300,9851.307414
0.712500,2814.475860,15.529433,9826.307004
0.712812,3103.482931,20.416030,9798.907679
0.713125,3120.067747,-35.500395,9821.560634
0.713437,3036.655174,-93.468615,9749.708038
0.713750,3091.636062,-14.994141,9722.388194
0.714063,2918.742176,-79.081377,9866.733267
0.714375,3065.763603,-29.575834,9822.920426
0.714688,3094.311261,81.304658,9650.385299
0.715000,2993.086507,27.806146,9759.695168
0.715313,2945.284681,-64.216313,9787.961327
0.715625,3003.721461,-34.974005,9771.509881
0.715938,2967.222005,151.240467,9908.441265
0.716250,2789.736688,54.419130,9801.659477
0.716562,2928.812905,156.301828,9836.416288
0.716875,2847.364221,-84.639653,9916.345498
0.717187,2765.717245,93.983070,9836.476992
0.717500,2820.018875,-99.354309,9940.441667
0.717812,2749.961854,64.077366,9778.430655
0.718125,2693.343530,147.827194,9989.466249
0.718437,2548.359395,19.996080,9850.096481
0.718750,2608.597891,-23.839932,9738.062259
0.719063,2403.826696,150.420492,9867.413272
0.719375,2430.678386,-23.631977,9882.677521
0.719688,2251.363882,80.431612,9841.759816
0.720000,2194.295506,53.728485,9849.042344
0.720313,2307.754728,-3.446421,9811.199287
0.720625,2205.306162,26.822437,9786.469179
0.720938,2156.150365,-115.849289,9772.412071
0.721250,2132.231939,-24.311123,9681.463059
0.721562,2046.440853,85.198385,9793.864127
0.721875,1879.217470,-101.194668,9887.180330
0.722187,1885.870041,-9.183855,9720.969255
0.722500,1802.741527,-65.526272,9800.795813
0.722812,1692.930384,-63.530381,9772.642258
0.723125,1649.360764,21.963794,9816.439478
0.723437,1553.331852,103.332477,9890.152442
0.723750,1452.390455,30.296944,9832.928966
0.724063,1397.917022,72.515866,9729.844576
0.724375,1362.452389,74.182959,9784.691168
0.724688,1426.438921,-67.548362,9817.455100
0.725000,1112.555726,-149.750524,9805.747072
0.725313,1135.083897,-99.315666,9665.757417
0.725625,890.800715,123.763734,9876.252722
0.725938,1048.324476,184.649849,9926.329147
0.726250,806.986560,53.039207,9845.102695
0.726562,756.499948,-36.847141,9850.255035
0.726875,758.597405,8.426241,9853.288727
0.727187,645.794927,-147.001709,9857.969740
0.727500,357.254759,-71.539676,9729.741209
0.727812,430.371158,33.270290,9677.956882
0.728125,276.730186,-48.269937,9683.238892
0.728437,253.115554,-63.522553,9663.054828
0.728750,124.223832,-68.987701,9873.858700
0.729062,79.232315,-90.292071,9762.919934
0.729375,-48.023983,-7.663216,9836.362783
0.729688,-174.258299,23.745054,9649.588641
0.730000,-160.475190,6.461652,9558.956745
0.730313,-469.508947,102.002706,9734.049128
0.730625,-471.684086,-77.245749,9730.825935
0.730938,-604.157956,-86.111813,9740.136844
0.731250,-629.421791,36.480351,9853.820868
0.731563,-741.955695,66.443468,9878.149098
0.731875,-808.413797,-26.068503,9711.648893
0.732187,-924.091942,8.887234,9805.385114
0.732500,-1009.905232,-38.308154,9879.466455
0.732812,-1190.452574,-88.323066,9804.394440
0.733125,-1147.561294,-119.544654,9701.272898
0.733437,-1204.449350,-42.014105,9870.066049
0.733750,-1360.254058,145.017168,9765.185123
0.734062,-1447.319320,-43.361389,9671.763601
0.734375,-1527.256653,97.130216,9820.630457
0.734688,-1420.923674,1.044475,9675.943570
0.735000,-1618.315759,-30.524870,9946.996347
0.735313,-1678.926966,26.279094,9948.405160
0.735625,-1808.972491,-8.458754,9766.589569
0.735938,-1898.262108,-23.920391,9747.469887
0.736250,-2000.141009,49.414576,9714.156487
0.736563,-1876.264892,-141.729391,9834.769523
0.736875,-2203.574596,-60.606531,9826.435649
0.737187,-2109.506158,13.017986,9735.497299
0.737500,-2199.384948,14.780531,9715.035320
0.737812,-2279.800997,-2.464456,9807.728316
0.738125,-2444.424544,55.616058,9797.986834
0.738437,-2475.487171,-27.753666,9877.086047
0.738750,-2353.480943,80.409480,9704.876592
0.739062,-2540.542916,8.775065,9890.295877
0.739375,-2465.395275,-99.108299,9715.003592
0.739688,-2530.421957,-14.246410,9785.269375
0.740000,-2583.476920,30.905945,9753.335592
0.740313,-2612.240019,54.271370,9824.794725
0.740625,-2810.773219,-41.566844,9815.567209
0.740938,-2790.088892,-173.799904,9720.368525
0.741250,-2733.469185,-64.804136,9712.331307
0.741563,-2921.683971,28.314060,9720.242422
0.741875,-2717.775500,106.967432,9821.303639
0.742188,-2923.242638,-2.100528,9906.806067
0.742500,-2908.395300,-16.978953,9878.132478
0.742812,-3007.263959,-50.299279,9854.050412
0.743125,-2915.193831,-143.753296,9805.417203
0.743437,-3019.548064,52.847622,9872.823497
0.743750,-2993.790815,217.896433,9662.141973
0.744062,-3076.182306,21.110534,9900.147139
0.744375,-2897.571673,-48.084519,9754.327943
0.744687,-3128.474078,10.641724,9884.044484
0.745000,-2963.842838,-60.982180,9880.064982
0.745313,-2980.147437,101.429781,9887.163661
0.745625,-2960.380341,-7.281422,9779.723106
0.745938,-3070.459316,-59.445100,9678.062579
0.746250,-2896.626243,25.403464,9845.288370
0.746563,-2889.815099,-77.163796,9788.667353
0.746875,-2938.971772,35.263418,9717.118234
0.747188,-2908.641471,-11.075398,9759.508190
0.747500,-2925.318210,-85.980509,9736.232854
0.747812,-2837.537237,-75.125268,9961.039041
0.748125,-2928.126316,27.018690,9803.029035
0.748437,-2788.711612,7.322510,9724.567478
0.748750,-2768.510388,138.926228,9864.366010
0.749062,-2879.010578,93.163307,9718.564510
0.749375,-2938.630988,-31.322410,9819.876754
0.749687,-2697.924934,-95.518080,9721.395480
0.750000,-2658.688609,25.070528,9912.669725
0.750313,-2502.954008,-1.401879,9777.801469
0.750625,-2547.883522,3.710389,9838.818128
0.750938,-2541.911616,-53.258478,9706.668215
0.751250,-2558.018508,-106.322949,9811.493517
0.751563,-2401.042230,-0.972621,9829.177140
0.751875,-2383.086144,-163.964350,9615.970664
0.752188,-2364.700310,-34.394520,9787.118318
0.752500,-2223.981822,-129.828346,9759.810262
0.752812,-2065.476139,-80.784026,9834.767022
0.753125,-2076.182589,41.036226,9805.152529
0.753437,-2099.042054,-102.230897,9735.098334
0.753750,-1918.458846,-51.099411,9730.295180
0.754062,-1960.087208,119.133537,9809.784523
0.754375,-1924.203820,57.273541,9839.742478
0.754687,-1682.414949,-67.595458,9754.811496
0.755000,-1688.239950,33.334997,9752.207292
0.755313,-1475.748450,-9.469822,9734.296902
0.755625,-1459.016753,-22.731070,9923.492817
0.755938,-1465.996935,34.775932,9832.266675
0.756250,-1300.123685,-126.423834,9950.348733
0.756563,-1128.892935,-12.676959,9829.416519
0.756875,-1161.261096,91.468693,9732.545938
0.757188,-1143.532138,44.355013,9889.656265
0.757500,-1022.968969,45.709439,9894.629865
0.757812,-945.527273,-138.631801,9661.405957
0.758125,-884.498309,86.658214,9937.856871
0.758437,-802.150244,17.424913,9697.670264
0.758750,-572.977991,-144.873730,9839.140529
0.759062,-425.403714,-46.019676,9716.416961
0.759375,-449.968582,23.566946,9806.082717
0.759687,-264.506556,79.199462,9898.016606
0.760000,-160.842344,-44.993623,9878.378404
0.760312,-4.588569,-170.870683,9786.946480
0.760625,-59.856098,11.137880,9639.767036
0.760938,21.526832,-52.718694,9838.489640
0.761250,177.585861,-79.108014,9750.430825
0.761563,245.982320,-50.794330,9836.025623
0.761875,356.419431,39.177951,9853.866446
0.762188,529.758112,75.989821,9823.827838
0.762500,485.071971,114.106605,9906.528434
0.762813,629.626974,15.250162,9763.462701
0.763125,626.112306,-127.921184,9757.946449
0.763437,783.488921,-11.984650,9763.096383
0.763750,833.244570,45.681308,9873.228762
0.764062,916.513220,29.905914,9831.171169
0.764375,1048.598143,70.608364,9775.319068
0.764687,1118.471511,-127.480952,9693.040639
0.765000,1270.815342,-5.135426,9901.847728
0.765312,1391.074827,74.595608,9895.562601
0.765625,1291.756375,6.439311,9746.016516
0.765938,1574.404620,-129.764073,9723.473606
0.766250,1397.546919,11.247458,9857.538614
0.766563,1675.417373,-65.686482,9892.349431
0.766875,1790.775135,-87.275529,9726.613624
0.767188,1758.509890,15.520873,9856.533008
0.767500,1867.060885,64.566772,9953.386679
0.767813,1895.799063,-207.213838,9647.628879
0.768125,2100.928095,143.254772,9760.821412
0.768437,1844.564090,-48.278674,9878.098532
0.768750,2087.541754,104.815611,9643.395941
0.769062,2075.021780,43.164875,9926.028725
0.769375,2307.571159,-13.505322,9924.237995
0.769687,2456.665632,-65.377541,9779.595402
0.770000,2505.930937,29.697670,9759.437374
0.770312,2519.521035,69.900552,9733.060163
0.770625,2538.920897,-68.376509,9705.336620
0.770938,2508.245781,124.555080,9753.630265
0.771250,2714.892713,5.343183,9821.199589
0.771563,2712.544270,48.621426,9797.987731
0.771875,2637.716691,-41.579044,9678.749423
0.772188,2642.755238,-55.002865,9645.375665
0.772500,2731.920237,92.294638,9900.137891
0.772813,2903.048018,31.342408,9785.286034
0.773125,2948.018160,-11.251584,9813.757405
0.773438,3005.782766,25.183161,9759.559700
0.773750,2840.147171,53.324094,9655.957686
0.774062,2896.117883,27.134340,9803.868559
0.774375,3055.286219,-50.737243,9737.930439
0.774687,2979.053287,18.154544,9823.199046
0.775000,3036.361505,90.892585,9776.217578
0.775312,2880.302388,44.615792,9861.218446
0.775625,2964.147130,39.425441,9721.678281
0.775937,2997.111251,6.173076,9872.849153
0.776250,2971.685204,-50.286040,9728.858850
0.776563,2965.468214,-57.546886,9747.308375
0.776875,2863.490579,-61.546338,9889.071073
0.777188,3117.022200,-109.346407,9715.718184
0.777500,2987.858889,-159.706949,9805.438376
0.777813,2846.040188,-97.302648,9816.513756
0.778125,3032.099305,45.809145,9732.997678
0.778438,2931.752390,143.841727,9692.133301
0.778750,2961.183993,145.143151,9856.357522
0.779062,2862.888431,-48.425989,9760.017241
0.779375,2787.173758,-138.610692,9849.996684
0.779687,2757.685825,47.295329,9757.427015
0.780000,2811.522335,65.575718,9807.693743
0.780312,2808.797228,89.871303,9645.876970
0.780625,2745.945805,42.917858,9942.622803
0.780937,2715.565305,-52.683909,9668.928331
0.781250,2714.631469,-66.280774,9666.736351
0.781563,2593.123149,-250.796733,9884.973701
0.781875,2599.581389,-215.260848,9808.718887
0.782188,2554.384893,-71.456087,9816.559557
0.782500,2433.179292,-29.335046,9831.706164
0.782813,2345.175532,-27.796344,9817.114302
0.783125,2255.513349,-121.317700,9992.586470
0.783438,2130.694164,102.938179,9774.507370
0.783750,2036.681916,124.438227,9795.349445
0.784062,2198.375385,59.898498,9909.031909
0.784375,2022.177643,-1.453395,9729.840018
0.784687,1907.111799,-56.040416,9856.590233
0.785000,2002.940661,56.763516,9809.667439
0.785312,1878.215723,20.973932,9802.552525
0.785625,1727.180668,-33.814179,9629.812248
0.785937,1722.959905,-21.819612,9758.226227
0.786250,1545.680598,154.131388,9686.988748
0.786563,1506.425039,-158.803424,9813.301932
0.786875,1538.580900,9.278050,9777.525627
0.787188,1391.342736,41.052792,9906.896503
0.787500,1197.103789,13.085416,9758.629521
0.787813,1185.558335,-14.457779,9873.810092
0.788125,1134.484163,-24.253732,9890.028083
0.788438,939.332335,22.615741,9765.021632
0.788750,823.125644,-10.089770,9673.814335
0.789062,913.509383,-45.444522,9823.224570
0.789375,645.919939,86.442786,9901.126737
0.789687,469.474797,33.935514,9784.615023
0.790000,491.392613,-61.594363,9801.202578
0.790312,567.484034,-183.844571,9734.792704
0.790625,338.899103,66.136095,9874.808385
0.790937,268.921733,192.312721,9926.248818
0.791250,-77.557065,95.573587,9815.290394
0.791562,-44.844977,3.070259,9704.915285
0.791875,-0.656473,-32.617215,9985.461820
0.792188,-225.989819,-232.732728,9891.089914
0.792500,-184.811002,-60.250576,9802.179480
0.792813,-348.202137,116.735926,9811.720171
0.793125,-450.446197,-171.957581,9759.073603
0.793438,-443.128702,136.375291,9636.166993
0.793750,-712.718435,-108.112512,9683.327908
0.794063,-804.076875,18.162281,9750.550500
0.794375,-851.491504,34.829401,9805.542118
0.794687,-935.038010,14.435299,9882.722640
0.795000,-1179.953545,15.049959,9817.197270
0.795312,-1036.321413,-20.716467,9806.816371
0.795625,-1205.753194,-76.982894,9956.228178
0.795937,-1325.402027,126.559572,9787.106913
0.796250,-1349.141233,21.226024,9928.186008
0.796562,-1515.779942,47.043661,9669.034790
0.796875,-1471.176599,-10.499762,9606.281077
0.797188,-1644.634458,3.146917,9722.606718
0.797500,-1672.462818,-160.694929,9871.992145
0.797813,-1879.594450,-49.620548,9718.660906
0.798125,-1907.581878,94.175239,9805.154235
0.798438,-1930.293501,-7.819484,9914.748312
0.798750,-2108.326889,10.135381,9822.154095
0.799063,-2155.986497,-141.668341,9854.847592
0.799375,-2175.681048,-100.057807,9875.632158
0.799687,-2148.476601,-32.060847,9821.928031
0.800000,-2240.191510,-117.926810,9759.044636
0.800312,-2289.903784,-64.191005,9787.502198
0.800625,-2396.602230,-0.227156,9645.469220
0.800937,-2404.806139,-38.747615,9862.030881
0.801250,-2407.148156,132.242690,9806.892069
0.801562,-2567.693627,42.845785,9796.047754
0.801875,-2594.321331,9.060776,9832.991069
0.802188,-2627.646255,36.544241,9873.973407
0.802500,-2876.837261,16.866711,9743.466638
0.802813,-2764.146871,78.188769,9916.703283
0.803125,-2759.289383,125.164411,9867.096109
0.803438,-2765.958137,39.058057,9865.750105
0.803750,-2882.479950,-125.570096,9823.732075
0.804063,-2806.255569,-133.722742,9713.621251
0.804375,-2959.858405,73.873510,9650.796724
0.804688,-2944.038600,96.911276,9772.332648
0.805000,-2813.452698,-90.538811,9776.870466
0.805312,-3071.097611,-119.685866,9864.849598
0.805625,-2981.250718,24.370550,9715.486880
0.805937,-2995.424627,-160.864816,9761.830897
0.806250,-2996.307189,56.523440,9752.227171
0.806562,-3033.995731,-55.225239,9913.630330
0.806875,-2938.382776,-154.891521,9758.345581
0.807187,-3071.709290,26.806957,9724.660203
0.807500,-3084.347676,121.021818,9857.897368
0.807813,-2929.660638,-94.106366,9762.313714
0.808125,-3049.548700,195.876523,9662.257975
0.808438,-2907.214962,-18.356840,9782.616248
0.808750,-2915.222176,48.413040,9809.422004
0.809063,-2948.360317,-25.472705,9886.452080
0.809375,-2894.564234,28.975690,9723.257400
0.809688,-2845.259188,14.992520,9890.565502
0.810000,-2768.739980,-56.290653,9982.690146
0.810312,-2819.414377,-81.784969,9779.195277
0.810625,-2746.904192,17.116174,9871.819722
0.810937,-2802.892020,-79.668852,9884.147176
0.811250,-2665.665767,86.190170,9798.171734
0.811562,-2749.552698,-32.486967,9826.334088
0.811875,-2549.512699,-48.912753,9859.825866
0.812187,-2529.114936,42.251486,9903.583141
0.812500,-2269.533649,-47.740169,9753.143014
0.812813,-2275.594220,-193.944129,9818.670908
0.813125,-2329.145639,-41.115552,9888.567434
0.813438,-2177.648008,16.280488,9773.405991
0.813750,-2164.596323,-7.000251,9675.286106
0.814063,-2210.439201,61.647381,9806.026562
0.814375,-2241.602767,36.637768,9796.418411
0.814688,-1886.008411,35.432037,9758.251879
0.815000,-1868.150106,-0.235029,9898.679598
0.815312,-1978.143126,-228.697644,9903.128461
0.815625,-1691.429991,96.137413,9808.340980
0.815937,-1587.898099,79.967548,9863.437428
0.816250,-1632.289043,47.742466,9767.683618
0.816562,-1429.462925,-7.184139,9788.891846
0.816875,-1543.440121,30.958068,9903.322761
0.817187,-1335.151488,-42.345083,9612.592372
0.817500,-1225.078878,134.710977,9707.733834
0.817813,-1074.224555,-45.923518,9823.253572
0.818125,-1012.495929,-2.392443,9797.149056
0.818438,-932.983459,9.942113,9842.171010
0.818750,-811.666306,27.006363,9862.397765
0.819063,-812.759586,33.924828,9835.429735
0.819375,-545.737822,-44.438405,9931.135421
0.819688,-593.925564,29.773264,9804.506051
0.820000,-405.295592,3.641865,9906.952420
0.820312,-370.627128,-19.226284,9734.044470
0.820625,-291.103954,65.426132,9797.263723
0.820937,-125.353546,-109.132750,9833.239328
0.821250,-37.032086,51.088938,9773.357544
0.821562,134.272527,-15.054483,9829.184045
0.821875,212.336054,40.130251,9755.433099
0.822187,180.534672,-6.189555,9820.536253
0.822500,365.265991,-13.374897,9744.489522
0.822812,432.304833,1.168845,9739.729048
0.823125,459.001707,66.951326,9823.716040
0.823438,532.566507,-142.386992,9756.445041
0.823750,738.213021,1.965764,9780.353665
0.824063,771.568244,-100.084635,9810.345302
0.824375,799.077178,56.753314,9736.274663
0.824688,997.055108,27.792517,9697.571985
0.825000,1115.866184,-73.711306,9832.429773
0.825313,1198.506583,-36.271853,9816.839245
0.825625,1185.272460,-30.561874,9862.703507
0.825937,1324.923061,45.629743,9855.671064
0.826250,1568.921726,-13.821656,9586.492519
0.826562,1484.460627,-47.564192,9762.774804
0.826875,1604.763044,61.439642,9828.237449
0.827187,1898.316381,-19.299513,9740.437672
0.827500,1823.026049,-100.413581,9748.515525
0.827812,1834.217491,-12.535992,9747.911537
0.828125,1795.993019,-78.732511,9869.989145
0.828438,2051.155500,-138.671352,9860.567954
0.828750,1988.093433,68.928460,9771.347427
0.829063,2167.575710,-99.351328,9716.161145
0.829375,2168.283150,50.541230,9666.275560
0.829688,2169.266683,-49.629560,9746.824946
0.830000,2498.269901,32.418790,9862.815623
0.830313,2417.909293,-53.577082,9731.944359
0.830625,2557.561553,-94.530809,9734.661920
0.830937,2598.028411,-0.205473,9791.412778
0.831250,2532.546640,107.900847,9816.768952
0.831562,2647.249722,-22.160201,9938.749934
0.831875,2657.809312,-155.021160,9766.612349
0.832187,2806.716598,-56.141387,9785.036991
0.832500,2804.200881,114.387410,9745.589422
0.832812,2778.486973,-93.341336,9724.709733
0.833125,2973.454740,-135.260658,9770.521298
0.833438,2913.032043,-59.875715,9767.010668
0.833750,2936.018751,-110.156258,9865.295910
0.834063,2860.738779,44.495381,9792.446498
0.834375,2976.949738,15.722582,9865.967983
0.834688,2844.888018,-27.026908,9718.262425
0.835000,3013.377170,39.773394,9884.475068
0.835313,2912.601242,-50.912199,9746.209440
0.835625,3009.724458,61.947229,9931.381522
0.835938,2977.117667,-10.958782,9767.827752
0.836250,3018.448405,92.895044,9736.182293
0.836562,3026.238036,-95.404554,9728.139993
0.836875,2987.080885,-75.943642,9862.255334
0.837187,2977.874305,-74.089997,9815.416212
0.837500,2850.605949,-68.422208,9886.052067
0.837812,2801.683270,-136.244699,9846.018409
0.838125,3035.057487,16.293448,9724.096984
0.838437,2957.329347,-5.600309,9776.999883
0.838750,2767.048690,107.397045,9830.609871
0.839063,3008.803585,86.142007,9880.940106
0.839375,2766.349597,-103.664078,9766.971984
0.839688,2828.594045,-117.417688,9718.730808
0.840000,2782.771255,57.294010,9669.630508
0.840313,2715.334795,10.311480,9712.467601
0.840625,2710.132690,-99.993446,9859.496084
0.840938,2503.302529,-12.880571,9927.341359
0.841250,2559.094889,-71.466285,9731.969109
0.841562,2487.496671,182.892757,9828.589131
0.841875,2457.785450,-19.764355,9817.874820
0.842187,2368.992866,13.425508,9706.066220
0.842500,2276.962048,15.456373,9769.450409
0.842812,2204.556799,21.711758,9797.290758
0.843125,2265.942321,87.878337,9655.463063
0.843437,2056.917377,92.324957,9770.921491
0.843750,2080.893138,-71.139437,9685.664774
0.844063,2004.656744,-105.525806,9809.235190
0.844375,1891.319604,126.996840,9721.860428
0.844688,1853.309043,20.903699,9724.762858
0.845000,1780.986513,-206.273935,9698.442248
0.845313,1611.211639,-40.397570,9781.612071
0.845625,1594.921019,10.003528,9729.846710
0.845938,1632.891948,-177.781076,9819.214356
0.846250,1305.470282,85.009019,9954.146277
0.846562,1276.022422,-67.328652,9850.080602
0.846875,1146.413027,-99.247828,9883.481868
0.847187,1272.705958,-53.537047,9756.148108
0.847500,906.512120,-100.039574,10038.676604
0.847812,922.932951,50.432166,9605.584435
0.848125,899.239812,-101.982021,9728.476821
0.848437,657.017972,60.005212,9803.501134
0.848750,616.293941,126.422983,9776.002937
0.849063,470.168143,-75.540923,9877.936947
0.849375,319.206790,-1.532247,9708.694009
0.849688,319.554008,115.863090,9736.852878
0.850000,263.086462,-20.008131,9800.591564
0.850313,89.865719,-68.473384,9752.186036
0.850625,32.729089,43.219023,9885.789895
0.850938,-27.845470,104.828643,9744.213867
0.851250,-89.078309,97.697556,9784.339691
0.851562,-385.086943,33.958202,9870.987081
0.851875,-338.968890,5.651067,9937.731038
0.852187,-538.692866,30.870150,9695.084284
0.852500,-740.301617,16.624254,9873.718939
0.852812,-751.735934,-66.979501,9896.158894
0.853125,-737.451097,-27.459010,9712.257396
0.853437,-862.399781,92.074813,9760.893745
0.853750,-1071.876322,6.503971,9864.353087
0.854062,-951.941888,0.827591,9716.528885
0.854375,-1143.016691,-114.918802,9764.888925
