#time,accel_x,accel_y,accel_z
0.000000,15.124271,41.733980,9827.658257
0.000313,-12.354572,45.630623,9847.546176
0.000625,25.909366,-90.528268,9730.465332
0.000937,-106.852812,7.393866,9725.785742
0.001250,261.969403,13.125836,9767.042021
0.001563,239.069531,-175.550441,9850.552914
0.001875,151.058191,-23.911301,9699.216429
0.002188,268.561691,59.051886,9803.379508
0.002500,258.725619,-67.059768,9743.078118
0.002812,221.498047,-32.850231,9848.897736
0.003125,373.584925,109.960661,9688.502153
0.003438,300.108233,7.909782,9803.187020
0.003750,328.214658,-63.351383,9931.582930
0.004063,320.708230,-79.041835,9735.638926
0.004375,450.024590,-109.096726,9763.523950
0.004687,435.225625,22.940505,9881.681684
0.005000,516.300607,-69.722139,9597.799316
0.005313,453.598162,-60.685401,9743.744615
0.005625,541.791164,173.815098,9610.245862
0.005938,489.708272,91.559524,9852.555689
0.006250,657.822915,91.989845,9754.862342
0.006562,634.931217,-0.059553,9714.153052
0.006875,675.680855,16.304051,9823.120350
0.007188,711.383215,57.941432,9796.148398
0.007500,626.947874,122.520439,9876.748352
0.007812,799.683242,2.986468,9809.333185
0.008125,930.736857,-110.046412,9753.455543
0.008438,664.245535,131.978315,9843.267157
0.008750,686.033605,107.918989,9754.010660
0.009062,733.007720,-2.018862,9778.721109
0.009375,949.657610,61.585174,9875.093309
0.009687,921.520597,-13.956430,9876.073924
0.010000,1026.305785,38.373659,9802.555444
0.010313,1026.577316,136.456202,9839.928098
0.010625,1014.299267,91.345003,9879.712958
0.010937,1048.770268,29.112567,9771.939575
0.011250,1040.979886,16.371353,9749.156602
0.011562,1152.467658,-16.171120,9767.302501
0.011875,1020.957071,-51.083870,9825.539147
0.012188,1105.839322,-153.213641,9860.325652
0.012500,1187.183769,21.330512,9802.198659
0.012812,1339.926690,51.396478,9758.189398
0.013125,1162.620751,153.659369,9731.700499
0.013437,1165.315171,-47.086915,9813.752216
0.013750,1234.333194,27.577733,9820.605147
0.014063,1384.584909,-110.223567,9544.088074
0.014375,1315.777218,-131.546384,9787.470368
0.014687,1467.944273,-105.913649,9925.060371
0.015000,1239.494090,84.228080,9830.481052
0.015312,1506.756093,18.325693,9744.797198
0.015625,1526.315941,20.278130,9847.421385
0.015938,1356.957159,14.024853,9916.721330
0.016250,1509.528874,36.652958,9834.255978
0.016563,1621.159741,-2.577915,9848.851288
0.016875,1557.451127,-109.287374,9831.047010
0.017188,1656.770624,-69.370539,9838.133646
0.017500,1793.017574,-35.804842,9841.081512
0.017812,1651.025289,80.399928,9826.291253
0.018125,1632.612965,6.268824,9870.608144
0.018437,1619.137753,4.733252,9796.373758
0.018750,1758.287789,4.266936,9789.209756
0.019062,1716.164019,44.035855,9876.064282
0.019375,1742.898422,66.822535,9876.586036
0.019688,1773.905759,5.371411,9822.024695
0.020000,1859.274033,-78.640152,9756.268512
0.020313,1746.761533,89.186602,9667.543209
0.020625,1734.285964,-53.362145,9711.371752
0.020938,1686.393295,-3.038881,9931.885163
0.021250,2001.241252,-22.032163,9905.602619
0.021562,1935.308842,126.533222,9729.149597
0.021875,2074.083212,-7.814447,9727.854070
0.022187,1976.232796,32.987058,9908.401373
0.022500,1941.056727,-22.458984,9720.082002
0.022812,2061.944474,13.005511,9859.155520
0.023125,2040.662016,47.430988,10007.342516
0.023438,1969.328008,-87.886304,9884.613825
0.023750,2021.523271,9.940108,9843.090755
0.024063,2256.125329,94.831547,9726.513593
0.024375,2165.371081,-30.766771,9615.169514
0.024688,2192.356618,15.021405,9702.478431
0.025000,2158.723795,-9.031343,9859.820499
0.025313,2147.249155,48.085480,9923.398849
0.025625,2295.111513,60.128257,9750.795193
0.025937,2236.531802,-15.535646,9682.623792
0.026250,2205.063703,-55.356915,9723.768564
0.026562,2275.717102,-135.287121,9836.603075
0.026875,2234.415581,-27.517850,9733.274443
0.027187,2342.243124,17.290233,9941.395842
0.027500,2437.308860,-6.362057,9705.901652
0.027813,2299.767929,33.885695,9853.325622
0.028125,2500.372375,88.064596,9727.798529
0.028438,2351.860528,-80.267068,9846.360695
0.028750,2436.468679,-9.018343,9700.707410
0.029063,2375.951856,16.138994,9924.054139
0.029375,2443.489720,1.291106,9676.274922
0.029687,2483.202542,16.632885,9779.196750
0.030000,2462.510186,99.693240,9763.390486
0.030312,2458.659136,59.679783,9960.443621
0.030625,2477.992132,-132.697985,9811.913266
0.030937,2483.588065,53.252201,9717.239694
0.031250,2440.454595,-48.021990,9882.328194
0.031563,2561.523205,-36.671696,9708.917290
0.031875,2630.870227,-48.962940,9745.329182
0.032188,2687.380932,-5.145608,9796.313137
0.032500,2682.120036,-117.375059,9835.126720
0.032813,2842.291056,70.592856,9798.748936
0.033125,2686.257727,61.100018,9906.765754
0.033438,2639.019788,63.876550,9730.354028
0.033750,2839.722339,78.590228,9597.489150
0.034063,2620.378504,-71.593698,9757.898420
0.034375,2795.495434,-44.551876,9906.789689
0.034688,2655.161413,26.517350,9724.937422
0.035000,2773.149827,11.434406,9845.949722
0.035312,2600.286844,95.014571,9627.264468
0.035625,2842.325654,-41.202490,9838.999596
0.035937,2770.034324,-20.909586,9803.555250
0.036250,2717.272947,78.275177,9883.389329
0.036562,2940.635057,104.179567,9788.376581
0.036875,2878.942529,-144.070561,9798.556548
0.037187,2832.407797,92.630664,9738.458541
0.037500,2779.810987,-60.391444,9821.136512
0.037812,2846.352923,-50.382712,9853.651803
0.038125,2846.753226,0.315372,9753.352556
0.038437,2927.563346,-22.645804,9703.063132
0.038750,2942.807053,39.357683,9762.366934
0.039062,2834.584498,-132.224991,9850.590183
0.039375,2852.761570,18.962033,9893.904337
0.039688,2862.512547,-31.160849,9918.186875
0.040000,2805.157454,-44.068863,9888.313821
0.040313,2873.458595,36.017775,9739.913972
0.040625,2920.728606,-35.469439,9799.979430
0.040938,2990.387246,-41.707235,9777.139270
0.041250,3047.382763,-123.544448,9841.893828
0.041563,2883.375857,23.915036,9871.803829
0.041875,2998.060957,-119.815400,9781.480470
0.042188,2924.012195,-10.804391,9914.794145
0.042500,3130.814722,-16.568805,9956.266441
0.042813,2965.776319,-70.311000,9878.804214
0.043125,3014.360941,-106.106201,9925.490011
0.043437,2903.455043,44.482251,9864.592026
0.043750,2917.289356,-8.647349,9736.831742
0.044062,3001.714557,-42.853966,9834.431325
0.044375,2957.925617,-125.641589,9749.659645
0.044687,3019.619461,-89.900626,9859.123006
0.045000,2868.750987,-61.321484,9628.167972
0.045312,3048.630826,-51.601055,9917.704738
0.045625,2925.317350,65.186210,9858.340864
0.045937,3136.305751,23.394981,9938.375176
0.046250,2976.300309,170.103414,9848.354938
0.046562,3087.653411,-5.924960,9849.209242
0.046875,2888.395819,48.686555,9809.073797
0.047188,3034.059310,-94.676225,9857.270979
0.047500,2928.076352,36.296399,9785.427679
0.047813,2959.167883,83.733317,9709.224592
0.048125,2998.711405,262.810135,9670.748820
0.048438,2969.626063,165.754998,9821.531964
0.048750,3014.003879,-26.268004,9805.027249
0.049063,3050.169608,58.469822,9726.183924
0.049375,3039.695285,-58.806627,9811.564265
0.049688,2977.210998,-102.930987,9784.648662
0.050000,2871.492660,-168.830429,9834.051873
0.050313,2912.173341,-15.671754,9873.148057
0.050625,2956.482422,72.642378,9711.789822
0.050937,2797.614355,-18.099531,9938.361071
0.051250,3022.363732,27.734266,9861.316874
0.051562,2937.482183,-20.209504,9852.480571
0.051875,2930.622566,59.903814,9966.615316
0.052187,3020.291859,62.128003,9673.308582
0.052500,2991.166954,-100.862836,9664.319895
0.052812,2948.345207,-38.446666,9811.218746
0.053125,2843.108144,-52.910212,9834.820566
0.053437,2940.217013,94.501515,9753.931227
0.053750,2934.864825,-4.347188,9671.910083
0.054062,2827.795144,-25.259830,9730.194340
0.054375,2973.067629,156.280296,9982.492445
0.054688,2920.878888,-65.967125,9596.276230
0.055000,2712.943093,132.282715,9772.832700
0.055313,2870.154411,49.035484,9752.881825
0.055625,2748.728752,-0.481115,9796.592898
0.055938,2929.937159,-27.727382,9907.300310
0.056250,2892.343306,5.974079,9742.323381
0.056563,2727.865302,-143.421760,9629.412498
0.056875,2733.357265,52.694530,9776.732331
0.057188,2799.913601,-40.531615,9836.461736
0.057500,2759.903235,-77.967547,9589.184274
0.057813,2887.892435,-108.050215,9803.835493
0.058125,2811.648385,34.934836,9893.024471
0.058438,2715.897724,-32.753473,9693.777230
0.058750,2770.433125,101.515963,9702.102320
0.059062,2547.037815,37.596279,10007.767034
0.059375,2719.418306,-7.745498,9865.393218
0.059687,2748.582084,-23.798652,9932.729260
0.060000,2649.226332,26.550503,9852.193194
0.060312,2590.632304,4.938587,9776.870315
0.060625,2676.258236,-40.170421,9835.478086
0.060937,2770.859451,-63.421184,9857.465753
0.061250,2613.376529,188.569499,9805.957040
0.061562,2489.789062,-25.370753,9763.830354
0.061875,2677.204986,-10.844823,9919.596824
0.062187,2392.996803,-42.435099,9889.140374
0.062500,2564.921321,-55.104397,9871.249809
0.062812,2459.138941,41.189943,9708.693395
0.063125,2560.821392,11.909878,9673.507947
0.063437,2398.743428,1.028851,9859.904238
0.063750,2552.588605,-75.250543,9848.726575
0.064062,2450.335518,-17.532761,9874.503624
0.064375,2267.454800,34.984835,9941.763073
0.064687,2226.642934,-73.812377,9827.034143
0.065000,2337.865923,-6.365560,9809.994838
0.065312,2444.957914,-101.073916,9720.129190
0.065625,2329.514868,94.430889,9713.946179
0.065937,2302.319949,46.728975,9794.407174
0.066250,2255.344501,49.123184,9700.685828
0.066562,2310.186421,16.615574,9854.073100
0.066875,2257.951691,-51.841458,9816.929327
0.067187,2226.480406,42.199212,9788.250466
0.067500,2101.240707,-43.005924,9656.236754
0.067812,2250.693854,-102.632479,9875.822215
0.068125,2240.042987,17.229686,9861.384963
0.068437,2001.905892,14.247039,9752.585144
0.068750,2264.840848,8.397809,9758.340507
0.069062,2112.921120,-156.340953,9821.789998
0.069375,1990.174662,53.002373,9829.708332
0.069687,1850.659369,82.948467,9760.267522
0.070000,2029.049417,82.912047,9705.430613
0.070312,1994.300707,-19.571271,9708.921173
0.070625,1874.954696,-28.727402,9824.750198
0.070938,1751.976956,75.714041,9871.802098
0.071250,1957.509094,-64.642795,9724.683992
0.071563,1792.532218,25.963316,9792.506569
0.071875,1773.625295,17.534106,9674.421022
0.072188,2010.507452,-61.686414,9659.069845
0.072500,1924.311792,-69.167626,9786.967377
0.072813,1801.321848,-180.945591,9840.876904
0.073125,1659.272398,-123.736774,9805.477306
0.073438,1718.084033,-130.106937,9754.074544
0.073750,1453.772139,-110.090639,9904.178242
0.074063,1614.720175,21.494662,9734.898481
0.074375,1515.068944,-39.256083,9825.396737
0.074688,1442.415663,26.349294,9771.808998
0.075000,1387.806070,-100.296386,9863.360475
0.075313,1525.368706,37.009222,9823.390292
0.075625,1459.192922,82.576187,9651.891010
0.075938,1433.286876,7.967822,9745.788745
0.076250,1456.131798,-55.378636,9641.413276
0.076563,1289.064497,-139.645417,9840.446351
0.076875,1225.694843,28.362416,9800.207468
0.077188,1150.007894,88.716572,9906.808673
0.077500,1232.666307,-3.749237,9865.926029
0.077813,1287.453127,-64.199795,9783.244333
0.078125,1181.643387,-58.086452,9871.702907
0.078437,1211.646602,6.353677,9894.191898
0.078750,1032.438013,49.657380,9763.817529
0.079062,1055.769943,-85.420267,9738.940041
0.079375,998.217967,-37.601922,9827.900882
0.079687,925.636420,104.993754,9706.119741
0.080000,1140.103389,-148.542696,9730.799501
0.080312,1025.185415,-86.849891,9791.565953
0.080625,861.573253,-25.050486,9832.670212
0.080937,826.578315,-181.245638,9794.681396
0.081250,848.470386,151.157327,9944.963203
0.081562,702.717148,-111.955265,9783.769492
0.081875,817.836723,34.279022,9804.030084
0.082187,644.179218,-14.430845,9760.834778
0.082500,682.695092,-11.565965,9788.005954
0.082812,594.823967,-11.954903,9646.024409
0.083125,602.775634,58.284863,9821.378809
0.083437,498.903388,77.301447,9841.087159
0.083750,443.686524,101.749599,9745.932187
0.084062,456.226343,121.726785,9648.942229
0.084375,443.016340,134.028422,9811.306406
0.084687,437.624896,-64.984656,9776.716907
0.085000,430.438322,49.423554,9730.308831
0.085312,510.684848,-130.649892,9848.946069
0.085625,417.042100,-22.490149,9895.112161
0.085938,295.279430,20.490301,9870.174011
0.086250,336.960249,-118.784089,9779.521016
0.086563,187.081835,84.043174,9828.944478
0.086875,321.316626,-153.684065,9745.232737
0.087188,212.581511,-0.948905,9747.339868
0.087500,23.290088,6.524569,9786.191255
0.087813,155.275333,21.056164,9778.457755
0.088125,123.178071,64.310550,9790.154809
0.088438,-193.946230,23.340539,9771.515071
0.088750,-75.965362,14.097635,9851.597750
0.089063,-91.066958,32.458260,9698.296113
0.089375,-244.504101,0.375943,9855.801617
0.089688,-212.672173,130.468861,9730.811682
0.090000,-240.248666,43.949468,9797.954336
0.090313,-160.895840,124.301109,9800.570069
0.090625,-214.505652,-37.158191,9702.836328
0.090938,-65.517943,-17.300168,9879.962754
0.091250,-344.205899,-107.366845,9853.793319
0.091563,-257.438314,-65.466507,9760.691687
0.091875,-380.393249,-2.706752,9829.198900
0.092188,-401.997768,79.988084,9734.978309
0.092500,-553.373914,96.018443,9662.007398
0.092813,-650.362177,-88.129506,9961.419358
0.093125,-595.697804,-124.044375,9788.851063
0.093438,-510.131403,-30.362288,9835.914449
0.093750,-481.196668,-152.756909,9756.154886
0.094062,-596.149429,-8.716228,9890.583028
0.094375,-641.179278,61.965156,10078.769588
0.094687,-784.635642,-103.505048,9845.852998
0.095000,-631.196893,33.997561,9786.998346
0.095312,-682.749614,-80.846495,9885.702525
0.095625,-868.936093,18.183900,9920.242503
0.095937,-866.290217,-34.177651,9764.750044
0.096250,-978.265516,-6.042349,9678.480879
0.096562,-817.089372,21.096994,9858.162931
0.096875,-937.719940,-39.547924,9696.897453
0.097187,-1013.467619,42.306816,9776.494575
0.097500,-1008.810466,-7.261286,9851.032284
0.097812,-1041.472582,-117.238135,9670.704827
0.098125,-1144.855912,5.577071,9793.930907
0.098437,-1246.323148,54.378955,9874.769272
0.098750,-1284.601306,-49.652594,9821.637892
0.099062,-1355.710772,-37.154431,9773.974920
0.099375,-1214.311066,104.050475,9900.198426
0.099687,-1108.121958,146.489975,9890.076062
0.100000,-1455.743053,-84.919479,9903.206490
0.100312,-1342.779001,4.427997,9759.438081
0.100625,-1354.794142,88.706537,9847.135563
0.100937,-1500.074241,39.606147,9821.253825
0.101250,-1438.376032,-6.162700,9839.414619
0.101562,-1575.699664,-30.973468,9745.472261
0.101875,-1424.910005,175.582223,9804.215287
0.102188,-1601.256563,-57.271610,9689.559974
0.102500,-1578.217448,45.236664,9732.210099
0.102813,-1563.833959,-18.914822,9983.520110
0.103125,-1685.029420,72.396848,9781.655127
0.103438,-1825.766730,-130.050742,9826.855385
0.103750,-1756.541171,-99.209181,9818.422840
0.104063,-1684.315889,74.848896,9754.365461
0.104375,-1783.169550,44.013215,9862.589296
0.104688,-1788.806190,-97.961326,9684.849140
0.105000,-1924.129167,-29.152319,9686.869862
0.105313,-1856.466573,55.603948,9765.382213
0.105625,-1839.612522,17.383293,9850.361918
0.105938,-1924.600042,-106.267345,9727.508455
0.106250,-1804.227711,95.349670,9795.378745
0.106563,-2002.542847,117.983556,9923.507587
0.106875,-2097.969880,33.359414,9809.279137
0.107188,-2172.503683,-10.615050,9874.852921
0.107500,-1979.040734,-108.108541,9789.791228
0.107813,-2103.708741,-18.639704,9730.443491
0.108125,-2045.514101,133.088332,9846.504311
0.108438,-2116.952089,-206.166003,9654.711271
0.108750,-2050.340563,-100.549766,9761.809320
0.109063,-2105.495158,1.755921,9819.840235
0.109375,-2263.074121,-126.610158,9865.816079
0.109687,-2236.689416,22.560106,9812.356938
0.110000,-2197.140263,62.556501,9829.124699
0.110312,-2407.860175,55.563959,9811.313371
0.110625,-2217.535964,-11.594209,9871.236804
0.110937,-2260.906047,-113.933510,9830.464927
0.111250,-2303.108819,19.087978,9710.923240
0.111562,-2421.309492,-109.522888,9770.576328
0.111875,-2404.165530,59.758175,9867.790104
0.112187,-2540.422969,148.464756,9691.791394
0.112500,-2468.714946,8.514453,9852.197849
0.112812,-2542.244890,-34.767307,9981.293444
0.113125,-2509.823879,-216.575928,9764.379269
0.113437,-2577.400263,-81.519187,9845.749095
0.113750,-2535.789276,-86.606818,9720.021962
0.114062,-2484.388201,35.158077,9784.009390
0.114375,-2703.317723,-23.119713,9901.660712
0.114687,-2543.902079,137.560563,9829.856536
0.115000,-2796.227198,144.372188,9706.734441
0.115312,-2828.274501,-56.382639,9678.269834
0.115625,-2683.007668,5.758604,9625.858423
0.115937,-2690.538828,41.208280,9719.916098
0.116250,-2672.820812,-191.094484,9831.340636
0.116562,-2856.748196,-143.951042,9791.033138
0.116875,-2746.005921,3.340707,9792.951710
0.117188,-2746.879504,50.557005,9724.650926
0.117500,-2671.909230,81.439791,9986.087599
0.117813,-2795.486821,-52.898552,9722.770739
0.118125,-2759.240663,-7.785635,9656.713650
0.118438,-2893.657239,15.274884,9894.161663
0.118750,-2843.890197,41.155559,9774.572216
0.119063,-2877.467392,126.584075,9784.631009
0.119375,-2798.011810,-38.090829,9810.848639
0.119688,-2945.342973,-27.278500,9842.535546
0.120000,-2944.451074,-16.450447,9867.195158
0.120313,-2842.597626,-98.269036,9655.562848
0.120625,-2755.993762,37.384059,9793.743769
0.120938,-2878.502197,-41.910952,9752.992589
0.121250,-2894.298382,75.009950,9845.317801
0.121563,-2955.231615,19.627222,9868.605552
0.121875,-2848.912886,46.833229,9781.342270
0.122188,-2900.727361,-43.986271,9777.644270
0.122500,-2812.683802,-34.825542,9936.227980
0.122813,-2931.783130,-41.312215,9694.198257
0.123125,-3040.515092,-48.915653,9761.484600
0.123438,-3016.075020,80.715107,9840.839306
0.123750,-3054.806603,47.006930,9904.088121
0.124063,-3080.688218,137.090634,9888.604009
0.124375,-2883.805312,17.603425,9907.562699
0.124688,-2924.065940,7.756802,9938.598112
0.125000,-3090.962920,0.899638,9806.221687
0.125312,-2852.050841,38.754976,9880.268188
0.125625,-2977.141863,38.664536,9989.554074
0.125938,-3074.871947,-38.440904,9899.926334
0.126250,-2968.498981,-69.756513,9856.889532
0.126562,-3005.469440,2.273863,9717.281225
0.126875,-3061.743287,111.980175,9808.862860
0.127188,-3154.821426,60.749284,9833.616678
0.127500,-2995.362658,5.251638,9828.098907
0.127812,-2973.311063,-32.832399,9837.356152
0.128125,-3200.823532,134.022327,9842.943260
0.128438,-2947.386815,47.736255,9847.112718
0.128750,-2939.105661,4.735025,9795.578207
0.129062,-3022.291283,68.892144,9757.130868
0.129375,-2971.383099,45.414225,9844.038091
0.129688,-2997.904624,19.181281,9716.396076
0.130000,-3036.972744,-40.244032,9727.419502
0.130312,-2992.814967,124.356628,9746.240876
0.130625,-2849.341779,-87.881751,9709.561958
0.130938,-3066.432586,-32.728640,9960.172222
0.131250,-2923.774818,-63.462328,9647.119658
0.131562,-2919.841945,-24.344313,9734.500396
0.131875,-2982.457578,113.967202,9867.429689
0.132188,-2951.805247,32.094906,9808.584940
0.132500,-3018.797958,57.126501,9730.453320
0.132812,-2964.565210,-155.684317,9873.458702
0.133125,-2884.312873,35.086282,9657.678490
0.133437,-2847.930933,-3.240137,9725.570202
0.133750,-2933.957012,-8.749966,9735.415862
0.134063,-2605.058790,40.771945,9765.858047
0.134375,-2882.135011,-38.983369,9770.106005
0.134687,-2812.725644,-4.487291,9825.687525
0.135000,-2827.227888,-98.920809,9980.165595
0.135313,-2826.099749,-46.914149,9850.059188
0.135625,-2674.835901,16.005148,9883.155136
0.135937,-2801.500363,145.956367,9761.875285
0.136250,-2640.190306,61.441585,10008.682128
0.136563,-2638.816029,-124.368899,9783.395726
0.136875,-2796.510574,-40.217310,9949.471234
0.137187,-2612.192278,-80.291680,9840.879681
0.137500,-2728.717132,-116.530914,9742.361012
0.137813,-2438.908519,-82.323418,9876.267214
0.138125,-2669.315764,78.448822,9811.931385
0.138437,-2693.836026,17.227385,9999.367577
0.138750,-2751.051893,-118.892405,9769.144431
0.139063,-2680.707446,-15.855377,9768.612875
0.139375,-2602.310978,2.304624,9785.078565
0.139687,-2613.796834,123.122546,9879.539547
0.140000,-2609.848647,-79.289617,9694.850181
0.140313,-2544.286836,36.760494,9690.778386
0.140625,-2481.799759,-93.265727,9846.654929
0.140937,-2325.458302,-104.542938,9667.701534
0.141250,-2553.317365,39.763491,9815.849979
0.141563,-2436.354026,273.050659,9874.490616
0.141875,-2443.228370,25.247015,9642.265413
0.142187,-2462.351978,77.323514,9895.936775
0.142500,-2416.187580,18.559098,9739.081099
0.142813,-2360.649333,12.427801,9626.853067
0.143125,-2203.662668,-15.565239,9861.102797
0.143437,-2248.919881,113.559489,9739.131213
0.143750,-2248.378929,-13.167839,9784.863761
0.144063,-2127.924268,45.273091,9927.914960
0.144375,-2125.413432,-45.367004,9927.520905
0.144687,-2136.353401,93.840484,9900.870139
0.145000,-2057.925952,39.341555,9723.429148
0.145313,-2124.693263,128.404249,9715.880977
0.145625,-1977.570792,78.018344,9818.362578
0.145937,-1959.328384,80.998686,9799.853724
0.146250,-1998.178080,-102.533134,9772.403334
0.146563,-2030.858880,85.102733,9676.001331
0.146875,-1779.403888,-51.266544,9735.177979
0.147187,-1860.788014,-61.240776,9810.477110
0.147500,-1591.150470,28.172606,9816.921101
0.147813,-1854.070283,-36.901922,9802.009737
0.148125,-1699.740217,-160.040266,9767.147535
0.148438,-1768.505494,93.286652,9830.894919
0.148750,-1678.911108,42.519780,9901.762130
0.149062,-1597.612309,103.814898,9666.431558
0.149375,-1692.956020,-96.698984,9889.088801
0.149688,-1601.401514,76.723048,9814.919805
0.150000,-1544.563376,47.575506,9832.432012
0.150312,-1512.072805,-16.207659,9830.621623
0.150625,-1436.822352,59.187130,9878.898584
0.150938,-1365.562028,13.448574,9888.205346
0.151250,-1343.673689,125.355093,9726.490192
0.151562,-1351.774938,-100.735592,9847.441484
0.151875,-1362.759847,6.642103,9793.436272
0.152188,-1387.207903,11.679488,9809.208818
0.152500,-1317.252567,-22.231898,9875.581765
0.152812,-1261.999552,-122.814476,9759.341019
0.153125,-1126.132263,15.363278,9849.743962
0.153438,-1170.610092,11.790667,9751.215202
0.153750,-1201.425872,-27.028819,9719.031869
0.154062,-1012.201618,24.299334,9836.758250
0.154375,-1086.600793,143.649297,9923.073465
0.154688,-1043.406772,-39.761769,9867.601372
0.155000,-959.818090,44.472316,9787.185162
0.155312,-863.222003,-28.189861,9698.937161
0.155625,-1053.282611,2.516765,9758.025870
0.155938,-908.895748,-51.926229,9840.910696
0.156250,-763.891613,-162.094190,9841.975565
0.156562,-765.646843,-2.127235,9822.746171
0.156875,-764.076790,158.674442,9848.917789
0.157188,-696.460985,-84.259539,9808.816471
0.157500,-500.396486,-10.129676,9812.516880
0.157812,-605.595979,50.721600,9750.114241
0.158125,-469.902675,41.683436,9723.527568
0.158438,-421.210187,12.776227,9940.919183
0.158750,-478.095420,5.449179,9681.638559
0.159062,-364.003371,105.485898,9901.864622
0.159375,-392.789597,-78.212438,9721.592791
0.159688,-362.796063,74.188674,9688.644180
0.160000,-361.142969,81.339331,9734.176771
0.160312,-158.085103,61.690951,9872.330680
0.160625,-216.878749,-8.829556,9759.349890
0.160938,-186.076838,76.432425,9811.856685
0.161250,-188.924402,-121.951470,9787.583761
0.161562,89.202596,-51.748645,9740.394728
0.161875,47.101475,-109.060458,9808.989779
0.162188,20.423933,-33.967836,9888.261659
0.162500,18.781023,131.758439,9822.674499
0.162812,-4.701579,43.094375,9874.736641
0.163125,184.352250,92.330718,9793.146660
0.163438,227.398613,23.017888,9736.413889
0.163750,134.954367,-12.575687,9647.655214
0.164062,383.826686,-7.928175,9764.310581
0.164375,396.220901,16.739347,9843.852337
0.164687,300.376522,37.961214,9870.109328
0.165000,376.031801,-56.205088,9860.219764
0.165313,429.384812,93.696378,9862.039727
0.165625,519.436297,-75.162893,9784.183879
0.165937,537.867257,12.060526,9919.711811
0.166250,461.238552,66.648662,9711.598096
0.166563,753.023096,18.515725,9787.889118
0.166875,703.033206,-168.124150,9949.334014
0.167187,821.105475,-21.055366,9646.366014
0.167500,863.017485,34.584925,9800.931426
0.167813,788.251279,-98.263835,9764.455286
0.168125,874.346220,-91.665144,9725.874133
0.168437,947.873282,-149.721652,9717.900477
0.168750,992.295721,-11.191318,9753.196752
0.169063,959.226065,68.098961,9803.925659
0.169375,964.314759,16.698798,9729.937848
0.169687,1057.830403,-15.930983,9877.970141
0.170000,1031.920540,-51.253107,9814.981354
0.170313,1092.395099,-17.353658,9896.114669
0.170625,1015.061483,20.372829,9760.196361
0.170937,1224.544223,-110.097338,10003.817929
0.171250,1175.840276,-67.434897,9703.129519
0.171563,1253.415832,39.842201,9755.058984
0.171875,1333.301935,-51.827142,9927.531159
0.172187,1401.994170,-51.157412,9779.930490
0.172500,1567.115887,77.754999,9788.836359
0.172813,1471.144993,-69.861177,9771.566506
0.173125,1380.250600,109.330860,9697.004199
0.173437,1541.988448,-66.606850,9823.502980
0.173750,1521.777103,50.846475,9764.612562
0.174063,1638.973091,79.880596,9762.522218
0.174375,1589.438929,-14.053255,9843.786643
0.174687,1624.530545,23.160542,9853.462779
0.175000,1676.878234,-19.257374,9757.755767
0.175313,1703.796201,-34.049572,9692.364496
0.175625,1643.877623,-40.739997,9761.272498
0.175937,1771.885693,-31.109151,9781.912913
0.176250,1859.333796,15.562578,9785.515232
0.176563,1991.212515,-41.966987,9871.293647
0.176875,1906.040991,10.658192,9830.281469
0.177187,1933.672423,24.849983,9855.238241
0.177500,2043.301966,-26.041154,9828.317162
0.177813,2073.148489,-102.003249,9751.732643
0.178125,2190.609897,87.387188,9949.374618
0.178437,2141.670533,-92.836577,9600.472272
0.178750,2125.073495,149.305979,9816.615589
0.179063,2265.010026,18.530866,9834.211078
0.179375,2311.154916,-39.737481,9825.774671
0.179688,2181.149477,99.525917,9759.244574
0.180000,2261.737412,56.598925,9923.813868
0.180312,2144.056963,80.542360,9610.565592
0.180625,2278.308047,81.655757,9783.151299
0.180938,2265.168811,-24.489420,9821.077830
0.181250,2346.667192,-160.306566,9771.932906
0.181562,2352.672444,-24.114046,9708.720679
0.181875,2404.808498,-56.329413,9889.172969
0.182188,2436.211060,32.530583,9829.164760
0.182500,2509.757758,76.707981,9713.634681
0.182812,2514.040222,-5.380390,9869.267849
0.183125,2475.357285,34.982195,9810.694800
0.183438,2441.350135,-15.795737,9785.236665
0.183750,2666.891442,-0.738221,9709.374965
0.184062,2704.539823,-4.506667,9797.516695
0.184375,2577.278304,19.134279,9806.580172
0.184688,2680.445121,-107.842944,9767.239880
0.185000,2534.755424,54.609582,9859.662006
0.185312,2552.586319,-18.772915,9771.485582
0.185625,2676.094520,217.383793,9753.418181
0.185938,2834.937980,100.021267,9845.032745
0.186250,2652.388337,35.067245,9592.882154
0.186562,2687.676956,31.809691,9778.297038
0.186875,2900.689061,-103.554512,9749.249048
0.187188,2637.655202,44.031532,9993.980169
0.187500,2857.248310,-80.702848,9786.688431
0.187812,2860.360178,-57.063849,9783.427306
0.188125,2819.978212,26.857957,9868.766831
0.188438,2866.070324,135.175252,9856.190290
0.188750,3074.571263,-33.466765,9888.515230
0.189062,2787.882878,124.675225,9858.846000
0.189375,2865.456107,103.298535,9840.064373
0.189688,2883.400956,134.976527,9770.658055
0.190000,2858.490438,67.282956,9814.732573
0.190312,2816.859202,17.992397,9845.754070
0.190625,3061.545940,-7.950548,9797.948319
0.190938,2960.885304,-19.295263,9869.732221
0.191250,2811.154466,-61.269080,9796.622739
0.191562,2903.402813,-5.073732,9856.708694
0.191875,2999.206669,120.965898,9788.728951
0.192188,3005.506956,-69.068202,9803.340738
0.192500,2863.774457,94.385202,9846.638368
0.192812,2976.759746,95.322484,9823.512162
0.193125,3009.321282,19.136153,9895.097243
0.193438,3023.534674,14.581834,9769.924352
0.193750,3026.674324,12.353110,9707.949357
0.194062,2851.539973,110.652370,9709.203026
0.194375,3146.710051,-21.056900,9823.825789
0.194688,3016.706395,18.973466,9765.429255
0.195000,3144.451695,-47.982813,9793.413488
0.195312,3228.468511,-3.047047,9794.390335
0.195625,2985.314240,-17.203379,9772.348223
0.195937,2897.485282,83.518550,9711.184589
0.196250,3062.632675,-59.561674,9754.723393
0.196563,2975.639355,-45.151073,9804.409855
0.196875,2949.884511,7.907340,9823.657665
0.197187,2898.512836,107.751770,9775.895875
0.197500,3110.664078,-105.906731,9697.643090
0.197813,2933.980127,8.700123,9858.777803
0.198125,2850.467543,33.180817,9838.050826
0.198437,2918.956767,-30.286854,9833.043691
0.198750,2853.798445,-55.861372,9748.435342
0.199063,2949.917472,-39.259221,9699.416903
0.199375,2893.932234,-22.685552,9815.646885
0.199687,2832.375139,-45.332076,9893.245119
0.200000,2953.890776,57.744731,9816.839393
0.200313,2842.349402,-172.506192,9934.455887
0.200625,2939.095539,-78.992255,9637.749792
0.200937,2968.741587,21.164442,10006.942406
0.201250,2824.874719,75.188207,9853.116716
0.201563,2787.379795,-81.489870,9690.294224
0.201875,2839.618984,-90.334846,9780.095513
0.202187,2878.872526,-39.457450,9673.846550
0.202500,2790.524029,110.805405,9950.793928
0.202813,2784.447415,106.906693,9809.647472
0.203125,2752.918813,-8.084276,9854.208836
0.203437,2761.105303,8.678164,9796.215639
0.203750,2766.968009,45.667234,9731.155155
0.204063,2639.969972,27.910171,9757.556086
0.204375,2636.968547,82.519842,9714.909949
0.204687,2657.508408,-120.766884,9806.037713
0.205000,2578.550714,261.580004,9772.275368
0.205313,2619.829598,36.997893,9868.835070
0.205625,2628.308567,39.725545,9956.609752
0.205937,2559.507453,238.721707,9830.433609
0.206250,2488.146141,65.470188,9800.535706
0.206563,2448.800229,-40.914365,9776.861556
0.206875,2624.987352,48.518026,9686.822480
0.207187,2528.454670,-78.426309,9792.728459
0.207500,2341.242914,-71.250778,9947.522447
0.207813,2335.600197,-17.697112,9814.571229
0.208125,2524.224797,42.248841,9865.959427
0.208437,2466.051165,27.148508,9670.104776
0.208750,2325.633074,-164.000072,9787.668970
0.209063,2377.646399,75.535941,9705.306919
0.209375,2135.113980,-116.400582,9637.467402
0.209687,2222.652659,13.616815,9841.997295
0.210000,2249.715788,73.802142,9836.452826
0.210313,2008.992223,7.724612,9760.450706
0.210625,2061.931073,239.916663,9897.782406
0.210938,2153.429843,71.052968,9851.671047
0.211250,2147.020093,-1.608342,9703.559322
0.211562,1974.178473,-139.398811,9799.979486
0.211875,2009.454194,112.055617,9722.803231
0.212188,2078.433844,44.888928,9625.307348
0.212500,1883.418815,86.690350,9750.998995
0.212812,1770.398525,111.811374,9865.588740
0.213125,1834.755285,-25.386633,9794.899230
0.213438,1770.330229,142.508450,9791.551731
0.213750,1867.505144,92.058444,9693.410014
0.214062,1737.401404,67.325645,9845.164858
0.214375,1621.136990,46.066336,9766.543516
0.214688,1837.611269,-7.967907,9767.453973
0.215000,1565.381608,30.471605,9841.323495
0.215312,1602.579524,98.060407,9883.817559
0.215625,1577.854551,-14.173978,9864.745931
0.215938,1545.063019,14.116477,9823.547859
0.216250,1454.310722,-80.807190,9671.926433
0.216562,1445.180576,-33.610417,9893.073186
0.216875,1350.202916,-15.724728,9753.211184
0.217188,1199.118446,-5.630537,9737.553494
0.217500,1251.726003,-53.682172,9696.794007
0.217812,1209.746219,30.971056,9737.845733
0.218125,1167.371047,-184.101995,9802.232336
0.218438,1148.117433,-25.167393,9750.450220
0.218750,1042.578138,63.739079,9817.410093
0.219062,1153.433109,48.718006,9846.829896
0.219375,1127.632837,68.291355,9827.037385
0.219688,780.706083,-127.637836,9697.370607
0.220000,911.648035,139.537421,9791.861439
0.220312,807.960350,56.229679,9782.597919
0.220625,609.964926,4.904013,9716.713113
0.220938,804.694036,-142.336138,9857.725437
0.221250,675.571867,-97.548445,9843.272483
0.221562,647.995512,99.458606,9848.817007
0.221875,578.704179,2.922368,9691.618996
0.222188,670.376685,-73.503751,9855.793094
0.222500,634.967706,-55.990846,9771.823266
0.222812,510.209054,-66.079227,9690.006826
0.223125,495.601895,154.020468,9732.448532
0.223438,383.105200,45.987169,9794.037867
0.223750,355.129391,22.165005,9799.305114
0.224062,236.276198,-54.464317,9777.463369
0.224375,249.977082,133.789332,9883.224514
0.224688,141.624950,-18.733365,9819.899749
0.225000,179.986746,-120.414357,9672.286712
0.225312,167.691030,106.935470,9799.076099
0.225625,77.694424,48.758408,9814.198754
0.225938,98.807188,-55.090381,9955.893000
0.226250,170.534573,32.774278,9901.718773
0.226562,-261.986724,-79.516743,9786.250509
0.226875,-141.145829,-46.208464,9717.585061
0.227187,-236.502690,7.508221,9692.066692
0.227500,-276.287556,28.156626,9708.705511
0.227813,-397.112544,-20.099076,9696.731149
0.228125,-332.912227,-87.903797,9872.721499
0.228437,-406.370190,20.867688,9820.294747
0.228750,-484.847078,94.312126,9808.154159
0.229063,-502.998895,99.546177,9739.924650
0.229375,-578.397740,134.952661,9849.426884
0.229687,-766.621510,-72.349711,9827.216345
0.230000,-541.075784,-133.006572,9863.967034
0.230313,-699.485157,-72.815443,9826.295810
0.230625,-798.962138,-54.033898,9711.811653
0.230937,-746.093831,25.037991,9879.396885
0.231250,-871.036241,-116.063213,9825.471314
0.231563,-1039.200969,82.506356,9780.086274
0.231875,-841.361519,-153.129780,9847.878237
0.232187,-1093.262462,-68.030393,9875.378784
0.232500,-1023.176763,-24.765467,9840.144387
0.232813,-1042.423598,-112.026961,9724.459146
0.233125,-990.134997,-11.655059,9800.371932
0.233437,-1048.703491,86.981792,9825.483036
0.233750,-1176.163005,-48.845199,9672.672710
0.234063,-1295.710449,-29.790017,9899.872647
0.234375,-1312.816125,129.220385,9711.823991
0.234687,-1237.109646,-63.567245,9908.732516
0.235000,-1225.454761,-23.128937,9807.821666
0.235313,-1368.763398,-66.412223,9736.207475
0.235625,-1507.388105,-75.085798,9688.952185
0.235937,-1416.610587,-80.055503,9792.125953
0.236250,-1571.752685,39.749169,9683.485660
0.236563,-1616.735491,11.347530,9870.280539
0.236875,-1648.387751,26.808968,9899.438934
0.237187,-1620.397488,75.091536,9810.669274
0.237500,-1686.690873,52.413595,9839.764293
0.237813,-1669.944474,31.214117,9842.483964
0.238125,-1685.853172,-96.073892,9792.408331
0.238437,-1788.229510,63.087604,9710.018523
0.238750,-2055.111481,23.198248,9671.946296
0.239063,-2043.004524,22.174314,9844.578984
0.239375,-1932.829515,48.838677,9798.137375
0.239687,-1988.415148,69.182916,9618.059411
0.240000,-1847.695626,48.991623,9879.949378
0.240313,-2059.500805,-62.144277,9691.917923
0.240625,-2105.393371,87.886614,9752.522809
0.240937,-2053.212007,-21.300625,9766.171016
0.241250,-2078.533622,62.924159,9793.680549
0.241563,-2216.902428,9.222676,9829.195947
0.241875,-2194.000298,109.701523,9716.635985
0.242188,-2355.722170,101.221044,9818.137773
0.242500,-2373.057402,-98.318882,9774.804256
0.242812,-2230.900969,82.732381,9954.436448
0.243125,-2473.423997,-80.772601,9779.286767
0.243438,-2317.729418,95.891538,9734.725459
0.243750,-2367.289932,89.336767,9863.005909
0.244062,-2389.282955,-88.413035,9837.481482
0.244375,-2406.505689,24.928732,9681.904343
0.244688,-2462.409301,-2.667060,9714.422752
0.245000,-2706.129482,-17.143743,9919.914208
0.245312,-2641.757050,-28.664100,9824.690010
0.245625,-2635.396367,147.293849,9800.652912
0.245938,-2539.272911,-1.097270,9706.847148
0.246250,-2727.124171,-24.195005,9872.317727
0.246562,-2716.998541,140.029233,9752.935226
0.246875,-2712.597171,-37.700063,9610.613176
0.247188,-2600.473305,59.366519,9786.191443
0.247500,-2842.530552,-42.606208,9880.041164
0.247812,-2856.254704,-90.397098,9858.485697
0.248125,-2717.689859,1.756648,9647.913058
0.248438,-2957.048888,-75.413282,9680.016095
0.248750,-2778.807103,-31.137197,9729.725925
0.249062,-2859.255568,45.166109,9721.958170
0.249375,-2965.857352,-79.279569,9840.698101
0.249688,-2889.287807,12.728340,9733.772042
0.250000,-2950.991965,-190.124228,9774.516233
0.250312,-2871.737556,36.644920,9710.904442
0.250625,-2869.572901,-90.348759,9807.481058
0.250937,-2792.253882,-158.748922,9675.566074
0.251250,-2924.254615,-46.631423,9858.368460
0.251563,-2926.212614,69.322519,9865.847496
0.251875,-2990.626462,116.653071,9687.539267
0.252188,-2955.672451,-138.952605,9825.148759
0.252500,-2878.304788,124.699475,9970.749974
0.252812,-3123.969092,-93.155805,9757.736900
0.253125,-2923.964324,130.004276,9798.245428
0.253437,-3025.432221,35.430924,9756.732366
0.253750,-2981.767842,22.334016,9796.087545
0.254063,-2965.871203,26.481215,9860.612218
0.254375,-2927.155140,109.472905,9800.120239
0.254688,-2978.588124,11.423829,9763.965358
0.255000,-3030.646651,-117.172067,9863.311733
0.255312,-2975.021660,-31.129222,9916.265953
0.255625,-2998.843068,-60.462014,9722.365731
0.255937,-3015.111641,-56.238636,9850.863065
0.256250,-2980.420528,69.124670,9775.233371
0.256563,-2924.147742,-0.646297,9745.514488
0.256875,-2979.290057,32.987985,9834.520426
0.257188,-2973.361832,78.283876,9657.556164
0.257500,-3083.363239,-14.069058,9739.728524
0.257812,-2984.206857,-108.450286,9895.216973
0.258125,-3115.491922,40.411334,9745.143281
0.258437,-2901.176002,73.026173,9695.474971
0.258750,-3024.966277,-96.244978,9789.346214
0.259062,-2836.368662,75.306356,9730.570774
0.259375,-2689.823057,-34.512123,9785.511269
0.259688,-2949.516255,-145.011443,10049.986873
0.260000,-2798.909727,45.223154,9792.373874
0.260313,-2859.679933,52.608965,9792.729522
0.260625,-2922.349043,-18.899728,9856.961415
0.260937,-2930.054558,124.665972,9855.989770
0.261250,-2801.894450,73.887211,9795.485699
0.261562,-2718.508120,-48.986970,9836.648716
0.261875,-2784.189151,-18.910054,9833.525139
0.262188,-2914.980742,-99.184356,9924.365125
0.262500,-2858.108770,131.123977,9759.867855
0.262813,-2772.825348,56.996663,9971.312516
0.263125,-2625.038535,-33.759453,9754.770511
0.263437,-2689.133093,33.385440,9884.127535
0.263750,-2662.995171,-105.501253,9643.570256
0.264062,-2568.886505,8.219330,9729.416004
0.264375,-2657.831792,85.290726,9787.406970
0.264688,-2623.523526,-44.491168,9831.475210
0.265000,-2605.072693,-28.916787,9834.755458
0.265313,-2706.095067,18.368232,9838.825001
0.265625,-2499.071233,-29.222800,9655.921184
0.265937,-2475.305364,-35.082673,9799.374175
0.266250,-2401.130976,61.142693,9822.686699
0.266562,-2544.507114,126.464775,9668.496395
0.266875,-2484.134866,36.791105,9898.693164
0.267188,-2312.829781,4.358674,9781.002086
0.267500,-2329.722903,-19.505914,9876.451266
0.267813,-2212.813849,-24.512682,9796.380277
0.268125,-2358.383006,-83.500095,9815.648419
0.268437,-2239.086277,39.069105,9987.468133
0.268750,-2274.335325,-56.950024,9854.016548
0.269062,-2159.884806,40.306144,9872.841389
0.269375,-2187.192561,-90.350806,9733.041137
0.269688,-2068.559954,93.698537,9840.585694
0.270000,-1987.311318,-41.077204,9956.804440
0.270313,-1981.527169,-107.234848,9945.889177
0.270625,-2141.295111,42.127412,9796.793486
0.270937,-1881.852493,80.469078,9710.725751
0.271250,-1881.111222,-21.012731,9843.835918
0.271562,-1959.575795,31.611628,9788.684279
0.271875,-1905.616374,-56.953619,9857.950111
0.272188,-1792.124767,36.457759,9774.058725
0.272500,-1704.366550,61.051991,9766.339432
0.272813,-1743.202245,42.288858,9781.389897
0.273125,-1793.294563,138.952855,9857.548553
0.273438,-1596.777660,59.216608,9719.779105
0.273750,-1561.005465,-56.950055,9721.337126
0.274062,-1334.074623,-4.366690,9799.839236
0.274375,-1586.727320,53.802066,9799.159628
0.274687,-1235.535570,-10.661211,9787.688350
0.275000,-1251.181871,86.202772,9773.684700
0.275313,-1319.373943,7.030920,9744.499151
0.275625,-1163.328053,-140.659869,9800.043901
0.275938,-1240.316486,80.717156,9728.772997
0.276250,-1121.394785,3.334158,9837.352421
0.276562,-1209.503934,66.836407,9762.875741
0.276875,-1095.222917,-51.141542,9586.554948
0.277187,-1133.192517,39.561839,9894.663138
0.277500,-1128.133794,-10.242154,9705.179253
0.277813,-973.560451,113.543283,9758.711950
0.278125,-953.946197,144.502272,9949.043745
0.278438,-804.507845,-4.828631,9879.247168
0.278750,-697.473321,16.360709,9658.070270
0.279062,-761.197078,22.673339,9820.823963
0.279375,-691.215732,-59.465425,9802.463150
0.279687,-628.916484,-41.154934,9902.033271
0.280000,-725.977581,-18.210451,9674.064403
0.280313,-517.790307,-65.021243,9848.528240
0.280625,-485.788330,-201.623956,9742.587934
0.280938,-437.601127,-54.843979,9783.660577
0.281250,-468.960087,131.427952,9709.486972
0.281562,-486.367791,126.141071,9766.834486
0.281875,-294.594728,-129.875884,9697.818764
0.282187,-195.923888,178.799002,9749.842395
0.282500,-60.488804,-31.491512,9774.023727
0.282813,-23.733027,-47.424703,10031.843594
0.283125,55.796193,-6.632246,9762.851698
0.283438,22.610808,-82.431593,9697.112090
0.283750,139.180980,21.699719,9740.919616
0.284062,83.891304,-79.195932,9834.695780
0.284375,204.325938,8.154473,9823.622724
0.284687,282.252739,54.588447,9772.787118
0.285000,476.469772,-102.498055,9701.004464
0.285313,334.292989,-0.970547,9879.594344
0.285625,266.560953,-39.965014,9712.473035
0.285938,531.976935,147.467194,9709.170492
0.286250,411.736557,174.707717,9785.696754
0.286562,523.341486,-7.917910,9860.727517
0.286875,557.669260,35.983630,9664.283899
0.287187,561.434877,165.425650,9814.884636
0.287500,793.506968,74.088275,9842.824682
0.287813,786.883227,-50.137051,9985.359179
0.288125,742.495540,-12.073309,9855.245776
0.288438,849.032635,19.245443,9790.322734
0.288750,860.606086,-71.946854,9843.960439
0.289062,995.994156,-6.273993,9829.750861
0.289375,967.724472,-54.165634,9803.351020
0.289687,987.646296,77.511603,9843.702113
0.290000,1048.007797,63.178892,9870.957490
0.290312,1114.882780,-61.045091,9932.003875
0.290625,1222.907799,80.130682,9878.758539
0.290938,1175.807540,53.789680,9762.909117
0.291250,1291.342056,31.217057,9904.503025
0.291563,1382.750415,76.402043,9680.008485
0.291875,1582.599826,116.181339,9859.268018
0.292187,1512.036365,123.281929,9868.129758
0.292500,1252.303031,-13.233092,9828.129109
0.292812,1497.117926,120.237779,9752.607349
0.293125,1552.765806,165.720933,9803.348182
0.293438,1656.166425,100.567648,9677.184851
0.293750,1801.586231,-56.656223,9820.126791
0.294063,1780.369296,34.726344,9823.844478
0.294375,1581.190846,-67.960979,9835.123918
0.294687,1833.839116,-32.259982,9859.928403
0.295000,1861.204764,-18.514201,9867.401268
0.295312,1928.283307,-61.694625,9851.959249
0.295625,2046.030511,62.730951,9794.812742
0.295938,1891.505375,-225.212037,9804.890175
0.296250,2107.833134,53.929424,9870.004039
0.296563,1927.439404,66.172219,9765.436721
0.296875,2103.307879,158.486044,9720.819005
0.297187,2168.501830,113.538613,9831.797717
0.297500,2358.932996,-73.870742,9804.321494
0.297812,2157.390912,133.513729,9834.408599
0.298125,2114.746564,-25.304475,9801.802185
0.298438,2341.179056,106.374585,9942.024412
0.298750,2268.508668,156.448383,9593.799402
0.299063,2480.948863,-169.750797,9730.820151
0.299375,2332.858780,2.665891,9730.977914
0.299687,2352.194542,64.987844,9757.172700
0.300000,2554.009010,-82.142498,9808.922693
0.300312,2492.544718,-80.356855,9710.585030
0.300625,2596.210421,-56.852603,9620.512638
0.300938,2431.332832,-53.197368,9750.866922
0.301250,2706.593091,69.475739,9735.276208
0.301563,2555.292158,34.532684,9886.234190
0.301875,2694.990462,98.846801,9789.321549
0.302187,2575.191942,-5.780914,9878.278352
0.302500,2556.795303,-69.485424,10027.736078
0.302812,2684.669288,-89.469509,9824.142339
0.303125,2742.628730,84.424958,9900.153747
0.303438,2877.342676,-46.511471,9894.127167
0.303750,2800.827213,67.623353,9721.031242
0.304063,2850.741960,35.137683,9866.662536
0.304375,2865.947743,-105.874500,9755.702063
0.304688,3080.828574,190.238570,9670.518601
0.305000,2784.386999,8.633659,9807.391212
0.305312,2967.106193,-122.119348,9829.127862
0.305625,2870.634030,274.426362,9860.068294
0.305937,2918.336606,116.184582,9973.729037
0.306250,2867.646050,-53.881475,9824.226974
0.306563,3017.296971,42.469266,9745.024222
0.306875,2835.833790,-53.675490,9680.553208
0.307188,2841.353464,-102.077444,9859.575207
0.307500,2940.411968,-27.108112,9762.915534
0.307812,2873.281942,65.991876,9772.308959
0.308125,3030.054424,28.197694,9756.997320
0.308437,3054.386706,62.230343,9665.364279
0.308750,2926.210255,71.659858,9766.170550
0.309063,3053.940219,87.677407,9786.054126
0.309375,2942.018527,48.623519,9804.482976
0.309688,2994.154871,-86.975514,9906.597594
0.310000,2999.905793,-33.057761,9851.415186
0.310312,3150.110685,9.459653,9755.949950
0.310625,2999.546101,30.050917,9748.652213
0.310937,2925.164293,-47.827601,9657.152893
0.311250,2922.212392,91.961570,9942.903892
0.311563,3088.064254,-47.638164,9765.638636
0.311875,2853.944978,52.337628,9768.319932
0.312188,2944.201255,42.773172,9770.001801
0.312500,2944.712212,-43.679513,9747.387498
0.312812,2771.351329,9.167138,9758.897613
0.313125,2921.070516,173.206457,9764.822113
0.313437,3028.960257,-14.306213,9847.451003
0.313750,2956.349291,54.251270,9731.827042
0.314063,2853.959842,4.991824,9648.148240
0.314375,2968.304407,-194.053662,9775.649195
0.314688,2940.436146,26.906072,9801.861798
0.315000,3046.073162,94.934782,9721.829461
0.315312,2808.701640,-16.755918,9761.277577
0.315625,2819.945588,4.305461,9893.746843
0.315937,2836.267881,182.060851,9795.346940
0.316250,2802.813294,-18.488054,9848.814643
0.316563,2800.739220,56.287915,9740.135400
0.316875,2764.154511,-106.804182,9924.392588
0.317188,2695.085052,37.143585,9784.211449
0.317500,2599.261428,77.012949,9788.128284
0.317812,2658.695566,103.096961,9802.410843
0.318125,2567.150030,40.247353,9979.542220
0.318437,2568.411707,-86.199154,9821.516561
0.318750,2581.776381,-32.339539,9795.671554
0.319063,2637.963183,46.332833,9876.491084
0.319375,2636.728999,32.896836,9746.558784
0.319688,2455.589252,43.100277,9711.184316
0.320000,2532.247929,-120.909074,9780.160734
0.320312,2540.211415,107.980005,9792.888885
0.320625,2439.736373,-67.669558,9957.968550
0.320937,2278.536179,-65.642151,9768.070175
0.321250,2202.951229,-86.293341,9919.177413
0.321562,2403.669919,42.568987,9792.841369
0.321875,2377.314430,38.824675,9855.949186
0.322188,2289.243808,-127.641503,9707.304070
0.322500,2145.019550,53.658549,9759.618919
0.322813,2306.959830,-10.699686,9906.910858
0.323125,2248.455501,-46.356080,9928.278138
0.323437,2107.488258,33.516657,9736.690073
0.323750,2052.354937,19.735808,9612.471994
0.324062,1871.855747,-83.364489,9714.391853
0.324375,2046.112065,-66.387946,9766.177108
0.324688,1813.682004,83.479834,9761.313257
0.325000,1953.313155,-31.967121,9728.135604
0.325313,1912.575660,-0.150513,9842.329074
0.325625,1816.410724,-19.700799,9621.301318
0.325937,1889.281277,-71.835277,9853.953357
0.326250,1690.466834,-17.471262,9904.751919
0.326562,1716.141731,7.373091,9824.131552
0.326875,1684.789544,-137.680400,9909.352270
0.327188,1592.387909,-143.673283,9691.402042
0.327500,1489.851857,48.270229,9840.507284
0.327813,1572.043151,0.920633,9668.832081
0.328125,1457.142756,158.285532,9772.699154
0.328437,1357.068849,22.072265,9821.233273
0.328750,1307.833484,-3.195254,9801.075605
0.329062,1279.646360,136.178988,9815.010401
0.329375,1399.328452,31.324836,9662.666301
0.329688,1172.502869,9.717392,9907.117815
0.330000,1091.564939,-18.202309,9850.419068
0.330313,971.774491,38.718835,9826.517527
0.330625,905.219836,-156.436331,9840.321005
0.330937,796.425574,35.137452,9795.874655
0.331250,912.052539,-101.371375,9822.194271
0.331562,840.262127,46.767941,9830.342807
0.331875,700.054443,14.001939,9902.624544
0.332188,607.413113,7.727390,9815.220440
0.332500,643.978481,12.241085,9909.585782
0.332813,571.596021,19.656217,9797.259881
0.333125,449.845653,115.999034,9785.416712
0.333437,523.840852,-83.917167,9747.415635
0.333750,453.871436,-118.416667,9908.922395
0.334062,380.968560,17.144240,9811.874937
0.334375,389.149488,-16.557719,9718.533311
0.334688,217.444904,42.706078,9781.734318
0.335000,320.574827,-138.497917,9740.375565
0.335313,72.617326,-36.961341,9860.764413
0.335625,136.878670,84.373487,9871.621343
0.335938,88.415541,168.463091,9778.484013
0.336250,-41.421252,-2.688848,9853.139445
0.336562,-50.676010,-83.027959,9794.185053
0.336875,-239.719863,-40.162917,9792.338849
0.337187,-315.424497,-126.390831,9880.292457
0.337500,-269.385952,125.230964,9807.027162
0.337813,-369.737138,100.048204,9886.121899
0.338125,-321.948504,-68.629786,9870.844381
0.338438,-424.711550,29.102654,9822.460496
0.338750,-435.469015,-6.915104,9903.104057
0.339062,-516.859056,52.475072,9800.225760
0.339375,-583.434111,59.490221,9989.632596
0.339687,-649.465664,-117.118228,9773.160878
0.340000,-743.692610,-128.881399,9802.186159
0.340313,-807.751216,-36.895677,9747.502859
0.340625,-664.197787,183.421556,9737.956990
0.340938,-1024.059832,22.463429,9739.924665
0.341250,-953.957214,95.532735,9778.398152
0.341562,-914.222713,26.127143,9833.100356
0.341875,-1016.146692,104.667454,9953.145217
0.342187,-991.765145,-20.834220,9804.013359
0.342500,-1114.928578,14.608966,9816.734417
0.342813,-1313.911665,-99.088396,9719.874343
0.343125,-1292.773841,-86.128652,9782.990334
0.343438,-1431.869708,-5.876396,9705.967162
0.343750,-1293.284223,-127.091681,9813.221213
0.344062,-1308.741415,52.798341,9778.652314
0.344375,-1511.132360,-209.573921,9848.039239
0.344687,-1483.445288,59.653376,9754.134054
0.345000,-1610.273436,83.559545,9863.353746
0.345313,-1742.431294,-97.117087,9769.221850
0.345625,-1712.402380,-108.425204,9885.336906
0.345938,-1851.968058,13.634509,9859.966820
0.346250,-1818.885016,79.474818,9748.404293
0.346562,-1803.845324,136.992710,9829.620825
0.346875,-1809.334481,-168.133877,9818.684191
0.347187,-1809.773530,8.750472,9853.172426
0.347500,-1985.340284,-102.077671,9900.164075
0.347813,-1984.348767,-14.897811,9961.661696
0.348125,-2013.267095,-102.150848,9969.232584
0.348438,-2045.490934,-98.649809,9748.590276
0.348750,-2360.241703,17.044067,9814.612410
0.349062,-2235.801190,206.666031,9746.701278
0.349375,-2150.409715,77.996442,9792.947406
0.349687,-2343.406189,-36.378640,9733.911298
0.350000,-2272.893623,-109.617639,9787.672336
0.350313,-2263.964803,-76.278819,9805.240012
0.350625,-2519.495684,-42.430590,9576.877459
0.350938,-2419.194805,54.783115,9906.991908
0.351250,-2420.216009,38.137181,9823.953886
0.351562,-2472.631449,34.665913,9899.042954
0.351875,-2629.274628,-44.222055,9879.207505
0.352187,-2511.509398,58.306560,9904.046842
0.352500,-2615.549813,67.849588,9851.410406
0.352812,-2535.268689,-37.559663,9858.168317
0.353125,-2596.068204,128.220769,9821.779061
0.353438,-2702.895143,-57.560858,9939.329082
0.353750,-2672.201259,210.846711,9929.229686
0.354063,-2767.847975,95.692153,9679.766248
0.354375,-2793.902748,-71.649883,9811.955915
0.354687,-2888.486757,-37.590525,9898.050520
0.355000,-2804.316500,-55.030467,9730.705831
0.355312,-2742.920479,27.840198,9914.230102
0.355625,-2819.193716,86.422245,9832.678281
0.355938,-2850.037671,-194.736614,9852.646531
0.356250,-2917.537450,-0.130980,9877.422818
0.356563,-2926.824451,-160.029403,9762.488892
0.356875,-2841.820006,-83.789062,9699.846974
0.357187,-3036.186968,84.034970,9689.671392
0.357500,-2765.745565,-119.975059,9810.112876
0.357812,-2948.862710,-50.808778,9886.831983
0.358125,-2781.735667,-62.677396,9859.394482
0.358438,-2872.186993,95.709687,9756.822886
0.358750,-3009.070914,33.099153,9846.160077
0.359063,-2925.142863,-112.616477,9875.713720
0.359375,-2970.460409,57.163069,9961.075856
0.359687,-2959.899538,-69.274809,9879.321480
0.360000,-2938.056739,-27.338582,9778.430953
0.360312,-3048.854517,35.100681,9805.393343
0.360625,-3056.814630,-99.928028,9768.522975
0.360938,-3041.876037,151.502171,9823.538229
0.361250,-3117.597450,-176.570145,9798.102645
0.361563,-3027.846009,105.682417,9813.461156
0.361875,-2985.885765,-112.588813,9869.654165
0.362187,-2980.405166,78.664528,9896.602445
0.362500,-2979.947879,5.781023,9855.375467
0.362812,-3020.798097,-39.284147,9880.483448
0.363125,-2918.694599,3.715120,9799.995949
0.363438,-3137.213241,-33.973553,9791.036395
0.363750,-2995.035106,-2.356381,9850.524714
0.364063,-2978.539677,36.515149,9759.929097
0.364375,-2868.290003,-43.568338,9693.775117
0.364687,-2873.407686,40.586180,9821.531206
0.365000,-2847.877268,-39.517353,9825.176512
0.365312,-2894.974875,-22.701105,9661.134716
0.365625,-2803.197895,53.396584,9845.539470
0.365938,-2941.244756,-34.117843,9769.429107
0.366250,-2835.932093,-79.802260,9851.651595
0.366563,-2990.130384,-6.285380,9820.886484
0.366875,-2662.352725,7.155888,9778.960646
0.367188,-2649.180001,-25.224308,9858.402211
0.367500,-2800.345945,35.112955,9703.172209
0.367812,-2795.132858,-55.146378,9768.844791
0.368125,-2868.748859,85.261085,9840.439805
0.368437,-2795.947078,-29.357383,9938.715470
0.368750,-2635.020431,-42.873817,9737.852411
0.369063,-2627.601890,-121.762330,9750.994762
0.369375,-2702.206760,-23.404965,9734.521275
0.369688,-2592.202813,-40.571322,9688.421517
0.370000,-2572.402714,-105.647406,9841.240713
0.370312,-2447.565733,-142.634613,9895.801480
0.370625,-2393.190947,39.234649,9822.433895
0.370937,-2431.369368,96.401078,9878.209046
0.371250,-2367.417835,-24.383939,9870.209288
0.371563,-2338.880803,12.860554,9862.180786
0.371875,-2466.449433,-129.090194,9707.279486
0.372188,-2244.835920,16.731972,9730.031169
0.372500,-2223.286372,70.332066,9885.194949
0.372812,-2116.076867,-46.548376,9621.381939
0.373125,-2280.065740,16.338041,9705.939464
0.373437,-2028.163271,-16.841245,9664.352405
0.373750,-2095.698998,-61.491709,9860.831032
0.374063,-1977.634976,127.922329,9764.938396
0.374375,-1855.629435,-39.676070,9785.435005
0.374688,-2023.327814,55.045180,9675.098927
0.375000,-1962.094444,-70.318302,9922.099868
0.375312,-1728.682891,76.312195,9940.363070
0.375625,-1849.857522,55.643944,9834.876004
0.375937,-1784.917385,61.205900,9841.469737
0.376250,-1608.812197,-153.049708,9729.134579
0.376563,-1621.397107,5.490493,9846.679487
0.376875,-1490.285382,12.726444,9840.902807
0.377188,-1475.299142,29.276557,9748.621511
0.377500,-1447.457985,-64.282200,9813.554724
0.377812,-1312.060902,30.953487,9849.209835
0.378125,-1160.613824,-16.876961,9720.117057
0.378437,-1287.955297,-2.346224,9739.549501
0.378750,-1105.300361,-99.684362,9829.604009
0.379063,-1076.181232,-76.265851,9777.771822
0.379375,-1100.735125,71.326764,9827.450065
0.379688,-1015.151020,57.776363,9640.420744
0.380000,-1068.458043,75.620186,9826.375941
0.380312,-984.045582,102.320174,9760.583151
0.380625,-853.367003,-6.826885,9744.415545
0.380937,-819.799868,-16.132423,9815.196885
0.381250,-652.004452,-162.778563,9757.094439
0.381563,-799.855899,-51.969743,9870.358016
0.381875,-658.754976,77.810211,9955.163268
0.382188,-625.449133,-114.368230,9804.799493
0.382500,-525.448177,1.242755,9919.363859
0.382812,-358.750762,30.777454,10003.288437
0.383125,-486.842683,-86.628690,9844.302381
0.383437,-260.472561,81.636058,9763.828845
0.383750,-313.754221,36.688421,9894.533517
0.384062,-230.384181,-27.257370,9765.255012
0.384375,-62.322797,146.197884,9725.126029
0.384688,-102.604892,-97.834525,9775.469697
0.385000,35.827565,29.528565,9790.704038
0.385313,53.944146,24.322594,9745.857077
0.385625,93.351039,-108.528023,9789.393084
0.385937,140.722167,70.272886,9761.570963
0.386250,93.325280,-181.661694,9782.575701
0.386562,234.381854,-78.841054,9691.242449
0.386875,369.623296,-72.849219,9845.865832
0.387188,434.492786,53.692108,9933.072789
0.387500,360.820375,-143.313941,9949.612931
0.387813,622.084690,53.861637,9781.750374
0.388125,649.205518,24.276362,9786.614765
0.388437,560.350917,-6.407570,9888.881187
0.388750,642.009823,-30.386795,9663.989807
0.389062,826.746721,100.990695,9714.209662
0.389375,705.649952,49.327050,9762.164511
0.389688,847.012371,-125.039249,9880.593171
0.390000,961.801119,4.610127,9832.861987
0.390313,1015.145192,-181.111456,9872.686590
0.390625,1079.538655,-25.038805,9931.930984
0.390937,1173.737765,-68.346720,9765.040218
0.391250,1136.405220,-43.245768,9866.664488
0.391562,1218.668856,95.025558,9723.585333
0.391875,1478.823490,2.045924,9723.953877
0.392188,1258.461786,75.221777,9882.358222
0.392500,1390.412818,6.575729,9763.148124
0.392813,1490.324116,42.695704,9649.008675
0.393125,1484.096983,64.755282,9913.764988
0.393437,1687.450103,93.318386,9681.347186
0.393750,1648.550183,47.424152,9877.247117
0.394062,1755.778907,114.897971,9803.557343
0.394375,1537.386746,46.950917,9808.668496
0.394688,1892.719866,26.973902,9712.564545
0.395000,1939.693410,95.183601,9757.314751
0.395313,1836.481936,-72.783615,9682.740626
0.395625,2050.084503,-66.495188,9918.647418
0.395937,2014.409615,58.669369,9728.081346
0.396250,2114.214444,-35.533043,9566.458697
0.396562,2230.926081,-8.492944,9619.314880
0.396875,2138.871548,25.857221,9602.529597
0.397188,2093.755324,105.213772,9735.794800
0.397500,2217.041852,16.647305,9934.576559
0.397813,2157.881791,-16.090645,9816.392232
0.398125,2236.926710,-111.075087,9683.095805
0.398438,2280.057099,66.638795,9894.632431
0.398750,2323.332545,15.069203,9779.409573
0.399062,2511.656687,80.921361,9762.718876
0.399375,2522.182192,-55.381610,9838.220501
0.399687,2419.278559,-8.200227,9696.473643
0.400000,2616.419650,-81.286345,9792.495462
0.400313,2424.995765,-118.022558,9715.568404
0.400625,2539.379196,142.044810,9793.809687
0.400938,2612.150171,13.832521,9929.230083
0.401250,2748.651797,-29.164138,9672.006927
0.401562,2740.698053,80.714998,9822.837614
0.401875,2746.682296,-141.973300,9673.058753
0.402187,2841.160500,71.298666,9841.252237
0.402500,2819.552075,46.413734,9690.392884
0.402813,2895.665409,-85.994873,9790.708958
0.403125,2746.132154,-97.502624,9862.953437
0.403438,2695.325677,-107.784513,9665.955242
0.403750,2817.485071,-41.965470,9778.711899
0.404062,2936.371453,-54.680217,9846.649806
0.404375,2908.367062,-1.573788,9818.146149
0.404687,2975.085391,54.768132,9810.245075
0.405000,2975.783861,2.806052,9949.603151
0.405313,2973.871991,-27.513400,9812.607654
0.405625,3010.444885,38.432857,9892.208541
0.405938,2898.586425,-180.832076,9716.827376
0.406250,3053.057959,-60.358190,9976.020173
0.406562,2893.260622,-110.144521,9899.650102
0.406875,2971.563757,14.275893,9718.744270
0.407187,2872.949981,89.833348,9674.842469
0.407500,3030.912625,-146.550764,9760.181986
0.407813,2868.940236,-6.613176,9805.620779
0.408125,3107.194941,-27.950365,9929.787372
0.408438,2887.003363,-24.589406,9911.200056
0.408750,3014.084453,-90.072468,9762.061040
0.409062,2979.397478,-29.505736,9807.700167
0.409375,2916.260035,76.611534,9928.570438
0.409687,3081.053682,-5.974178,9722.357602
0.410000,2939.813898,-38.867743,9884.821024
0.410313,3083.306309,-18.968316,9740.886049
0.410625,2874.094682,43.474908,9732.097203
0.410938,2881.006778,65.067544,9871.335725
0.411250,2772.731969,-130.592851,9735.418663
0.411562,2963.441503,-61.273560,9815.231936
0.411875,2977.489593,-46.923833,9747.385988
0.412187,2905.608695,-72.768136,9640.886045
0.412500,2856.860322,-35.284049,9725.312360
0.412813,2776.904921,14.692383,10010.938078
0.413125,3018.432717,-9.806317,9740.731447
0.413438,2867.888912,-33.485567,9835.067115
0.413750,2637.549245,31.029570,9724.754554
0.414062,2735.972987,94.748816,9588.772065
0.414375,2526.099634,-5.607668,9857.125029
0.414687,2834.530215,-79.429245,9682.222696
0.415000,2838.146707,-106.646188,9799.816784
0.415312,2767.312327,-29.176317,9759.528441
0.415625,2615.057970,-74.285440,9736.659360
0.415938,2539.847404,55.754680,9792.934463
0.416250,2441.533054,-22.201350,9765.131307
0.416563,2562.118571,-21.991125,9598.140731
0.416875,2424.005586,-3.155074,9865.728333
0.417187,2416.712707,-84.988386,9761.810990
0.417500,2357.513313,-7.603099,9824.062683
0.417812,2344.799464,-9.843569,9989.593326
0.418125,2401.148127,51.231884,9801.199874
0.418438,2423.127762,113.243280,9806.160506
0.418750,2257.275241,141.647572,9792.938776
0.419063,2203.096660,-25.211065,9813.145223
0.419375,2067.557988,-1.310260,9817.470258
0.419687,2012.489076,-113.556010,9886.589464
0.420000,1979.002708,127.010651,9845.019197
0.420312,2087.489342,-6.573609,9935.704716
0.420625,1987.638899,-166.267315,9862.557638
0.420938,1995.773688,-16.312124,9752.375182
0.421250,1901.474715,-31.413122,9720.039684
0.421563,1783.658954,-43.205820,9844.717007
0.421875,1663.722204,-87.259341,9690.419845
0.422187,1680.608262,56.462894,9809.186677
0.422500,1541.336838,-32.960919,9879.921803
0.422812,1761.784857,-90.650580,9663.401947
0.423125,1566.974152,-66.218443,9787.278662
0.423438,1459.317368,104.179372,9733.276343
0.423750,1591.762080,95.907806,9778.680701
0.424063,1342.750579,44.687897,9797.275745
0.424375,1359.699416,-50.498773,9723.025242
0.424687,1242.478309,-65.638285,9815.292705
0.425000,1224.449318,-17.458483,9756.378338
0.425312,1105.547538,124.224407,9758.041538
0.425625,1113.724344,79.019928,9617.129473
0.425938,1127.144939,33.171690,9798.473549
0.426250,848.623456,-89.791413,9834.596793
0.426563,708.672407,49.710741,9829.877459
0.426875,933.269764,-114.133104,9743.028765
0.427187,774.421294,-31.884878,9900.902034
0.427500,767.361567,93.604590,9800.519348
0.427812,609.336324,51.045464,9732.437679
0.428125,692.526760,184.491515,9688.292145
0.428438,649.992567,119.318407,9871.695760
0.428750,343.487762,-30.127028,9803.797229
0.429063,426.581593,77.812856,9694.663312
0.429375,257.380678,41.298198,9752.761675
0.429688,110.646719,3.852577,9643.327163
0.430000,150.168995,-61.855340,9858.985662
0.430312,154.180575,11.344313,9775.911381
0.430625,-68.583957,-6.034209,9846.444302
0.430937,-128.249876,127.788252,9857.792620
0.431250,8.749958,-95.820993,9845.642059
0.431563,-154.673218,-87.983997,9783.409727
0.431875,-191.123373,48.430487,9771.935931
0.432188,-382.230630,18.631426,9814.904248
0.432500,-408.949047,-33.540507,9777.556597
0.432812,-412.365437,18.557181,9827.173692
0.433125,-472.936145,157.591667,9879.091117
0.433437,-542.064163,-45.334327,9824.875606
0.433750,-490.701415,38.221343,9621.439559
0.434063,-671.080627,43.480939,9675.866537
0.434375,-873.217059,22.561383,9769.093921
0.434688,-884.666060,160.132308,9848.248477
0.435000,-882.864748,-33.703581,9667.582672
0.435312,-838.709413,-95.657738,9862.553423
0.435625,-1060.853325,-45.683852,9813.091956
0.435937,-1099.804321,-34.115822,9764.022325
0.436250,-1132.686438,106.745261,9780.635114
0.436563,-1249.522747,116.780807,9907.602621
0.436875,-1320.280087,-89.031460,9869.684576
0.437188,-1333.366904,75.403692,9838.243481
0.437500,-1294.009079,-174.895344,9781.900366
0.437812,-1394.598139,-5.115767,9787.119337
0.438125,-1515.582784,-1.130896,9626.845351
0.438437,-1517.690311,127.218507,9819.968980
0.438750,-1711.153180,95.352586,9865.697343
0.439063,-1583.049122,65.016477,9836.595775
0.439375,-1659.411034,-114.822479,9856.434902
0.439688,-1749.846358,-110.834032,9830.630563
0.440000,-1959.696936,-18.847514,9804.408423
0.440312,-1716.278978,-62.034074,9867.644130
0.440625,-2169.271882,-50.117009,9773.313670
0.440937,-2064.532914,-40.435446,9744.098958
0.441250,-2108.261343,-82.644232,9730.425227
0.441563,-2026.726992,7.782090,9801.639584
0.441875,-2252.210379,112.540557,9807.196834
0.442188,-2158.969993,-40.768783,9810.810966
0.442500,-2236.299409,-7.582795,9823.721402
0.442812,-2292.335629,-21.904642,9667.468152
0.443125,-2243.293847,-108.755600,9852.352710
0.443437,-2239.860099,-61.055793,9756.503670
0.443750,-2364.309397,6.999074,9809.696297
0.444063,-2458.857169,11.339871,9723.504238
0.444375,-2659.979890,14.041240,9802.175178
0.444688,-2394.391787,43.516388,9934.662078
0.445000,-2574.188487,-24.059140,9813.831541
0.445312,-2734.961024,-153.889920,9693.933382
0.445625,-2606.093939,27.311133,9807.714517
0.445937,-2534.382834,149.319702,9834.812792
0.446250,-2694.319263,-10.076576,9775.289666
0.446562,-2807.405039,-98.754012,9861.489189
0.446875,-2558.843459,13.842343,9706.591721
0.447188,-2718.795445,-90.980965,9728.502674
0.447500,-2766.273734,-53.276789,9913.687306
0.447813,-2736.264830,-61.218657,9790.440925
0.448125,-3017.102486,2.896107,9811.690266
0.448437,-2868.617035,40.692128,9801.628225
0.448750,-2896.368259,95.305107,9788.353101
0.449062,-2718.117842,110.676873,9715.082535
0.449375,-2964.388775,-48.403947,9720.253127
0.449688,-2979.126176,-119.126096,9909.156383
0.450000,-3061.151671,26.576111,9713.562377
0.450313,-3027.803598,90.632894,9621.720753
0.450625,-2989.036461,-0.428932,9843.347891
0.450937,-2960.771859,10.067892,9812.589089
0.451250,-3006.262077,36.505146,9776.645230
0.451562,-2834.361897,-51.821330,9693.138373
0.451875,-2962.004970,-14.701695,9703.611230
0.452188,-2953.712583,123.271541,9880.099518
0.452500,-2896.615484,120.644116,9796.931035
0.452813,-2956.585208,15.588509,9827.221533
0.453125,-3049.160426,218.965554,9782.574418
0.453437,-3129.522406,-48.617273,9708.299267
0.453750,-2971.041331,28.802761,9735.339559
0.454062,-3061.662225,-82.532867,9668.544722
0.454375,-2880.334197,18.317512,9925.771166
0.454688,-3040.579103,-86.503487,9830.814222
0.455000,-3148.653839,2.507783,9984.626323
0.455313,-2952.789377,-72.413065,9802.908454
0.455625,-2855.780392,73.091515,9949.145718
0.455937,-2944.650057,24.991267,9735.596467
0.456250,-2896.605385,-83.382937,9898.951487
0.456562,-2880.931987,52.737165,9738.810650
0.456875,-2734.253748,-44.151591,9841.747876
0.457188,-2828.584197,50.172149,9920.356550
0.457500,-2833.954926,157.085668,9761.839981
0.457813,-2856.705402,-97.254114,9873.591807
0.458125,-2914.607801,85.752033,9942.436107
0.458437,-2640.211030,12.175821,9797.582574
0.458750,-2632.959607,-141.633662,9893.433178
0.459062,-2773.875680,37.465292,9759.180340
0.459375,-2615.884938,115.424051,9710.923384
0.459688,-2606.243681,20.953194,9798.959096
0.460000,-2629.756298,22.586324,9731.085587
0.460313,-2588.937820,-13.228509,9859.736709
0.460625,-2465.623933,29.954499,9733.680616
0.460938,-2586.707935,-104.371726,9760.628582
0.461250,-2491.785380,97.554240,9853.756976
0.461562,-2415.103872,-39.561049,9845.033951
0.461875,-2367.490052,-34.444365,9832.743094
0.462187,-2340.801073,74.676574,9758.423477
0.462500,-2261.562043,36.710411,9788.483835
0.462813,-2190.490823,72.170594,9667.938145
0.463125,-2259.330780,-115.401603,9848.727475
0.463438,-2131.827198,97.847275,9773.240629
0.463750,-2132.419770,-34.325010,9695.060772
0.464062,-1916.798385,-22.237904,9900.996544
0.464375,-2102.063788,37.117930,9912.312862
0.464687,-1954.464005,11.741206,9803.021768
0.465000,-1825.100409,-20.449843,9688.170449
0.465313,-1850.460187,-90.800692,9821.770350
0.465625,-1798.825117,55.184634,9817.017470
0.465938,-1758.993646,-138.396619,9853.568255
0.466250,-1632.356949,42.851672,9701.068252
0.466562,-1693.911499,120.655017,9877.261439
0.466875,-1546.768041,12.111552,9851.950127
0.467187,-1488.282423,-59.032182,9808.830243
0.467500,-1537.953243,-172.816216,9788.465456
0.467813,-1335.181873,-51.862721,9757.426958
0.468125,-1332.716171,-156.813533,9729.477120
0.468438,-1206.623992,-117.125731,9767.522509
0.468750,-1097.964671,128.342929,9808.329127
0.469062,-1075.391025,16.258812,9709.189727
0.469375,-1133.999376,-154.058903,9735.772636
0.469687,-946.289370,-77.946864,9846.904928
0.470000,-1035.958050,-52.330619,9796.656857
0.470313,-901.534478,-29.389168,9728.781877
0.470625,-636.656912,-78.709105,9907.287092
0.470938,-704.036530,17.660765,9947.112678
0.471250,-510.003401,67.726242,9906.735371
0.471562,-582.614016,-60.830952,9848.653425
0.471875,-498.384913,-92.455215,9710.797931
0.472187,-520.608408,29.473051,9838.874755
0.472500,-284.350783,-123.491144,9954.435298
0.472813,-307.367900,-3.305504,9849.082907
0.473125,-170.793361,-100.051995,9747.631297
0.473438,-116.247473,-4.678924,9782.987183
0.473750,-38.193448,-0.473422,9854.211853
0.474062,15.063052,129.950927,9864.711498
0.474375,55.650919,-59.545658,9799.640895
0.474687,128.808734,-28.675036,9729.584508
0.475000,142.845151,86.539195,9809.186680
0.475313,96.641032,-57.770141,9775.900206
0.475625,378.455888,-11.192644,9787.733574
0.475938,577.278879,-46.438396,9927.329640
0.476250,565.698820,-130.350158,9769.380000
0.476562,736.823088,-26.186328,9830.212954
0.476875,655.970974,-84.113464,9796.399550
0.477187,607.536439,37.621828,9648.418507
0.477500,673.962522,177.976867,9817.137836
0.477812,882.283943,121.410256,9829.362353
0.478125,917.128182,81.043642,9745.523736
0.478438,943.133808,14.555942,9745.872881
0.478750,1083.168459,57.109211,9876.306314
0.479063,1018.180194,110.482670,10002.052438
0.479375,1196.853284,-149.234106,9846.499674
0.479687,1196.503099,84.941583,9868.403344
0.480000,1296.174658,118.641843,9844.396846
0.480312,1443.021116,-100.366803,9770.777985
0.480625,1398.380417,35.518726,9918.588681
0.480938,1583.010227,15.312998,9829.243283
0.481250,1640.344904,-25.336026,9777.996781
0.481563,1531.648124,109.755421,9819.921713
0.481875,1840.824779,93.488203,9941.499838
0.482187,1610.851069,73.801400,9826.132890
0.482500,1760.775342,75.940850,9789.790462
0.482812,1885.229611,-77.943770,9912.607952
0.483125,1696.489092,-59.267711,9679.936310
0.483438,2019.552324,126.341958,9715.070084
0.483750,2081.686748,121.037489,9856.882107
0.484063,2032.879421,101.042807,9776.706803
0.484375,2115.434724,83.465103,9917.529729
0.484687,2161.051413,0.820102,9760.106000
0.485000,2175.702298,110.692856,9920.787890
0.485312,2327.297350,-24.044422,9927.145889
0.485625,2256.826080,-78.759732,9710.001361
0.485938,2328.764516,46.875774,9810.178113
0.486250,2405.976533,55.563368,9871.380205
0.486563,2487.962107,29.094829,9753.642060
0.486875,2549.793298,-40.600198,9822.759485
0.487187,2380.523682,86.205004,9802.621991
0.487500,2374.198069,-1.072578,9889.735831
0.487812,2564.993423,-80.521437,9847.332503
0.488125,2607.494272,74.034078,9838.120344
0.488438,2558.405303,-15.229649,9893.308231
0.488750,2703.747740,-164.450886,9724.070424
0.489063,2761.334529,-5.818291,9753.074150
0.489375,2771.088083,89.218489,9804.761162
0.489687,2902.174443,-35.643893,9951.206579
0.490000,2711.046627,57.638373,9685.131525
0.490312,2822.073494,-10.313467,9691.734258
0.490625,3000.258801,103.717553,9820.609313
0.490938,2920.815666,-44.936730,9734.955458
0.491250,2795.402247,154.939040,9820.611062
0.491563,2921.160088,33.065384,9854.956866
0.491875,3017.525425,42.915252,10010.370625
0.492188,3106.258767,15.399744,9780.358603
0.492500,3004.785579,-39.726434,9696.734498
0.492812,3057.818930,-82.256451,9824.282792
0.493125,2883.343304,-47.905105,9737.814053
0.493437,2961.995698,56.027690,9801.636626
0.493750,3086.116611,-11.633138,9771.078998
0.494063,2916.582418,-78.717389,9737.005721
0.494375,2993.041348,2.009564,9831.484558
0.494688,2848.351948,116.998721,9819.405015
0.495000,3120.199092,-89.950619,9620.672692
0.495312,2987.908648,-34.888226,9734.274517
0.495625,3041.259770,-70.824708,9827.323072
0.495937,2868.336157,27.586198,9734.102612
0.496250,2877.077282,16.423247,9834.208486
0.496563,3122.617020,-115.456047,9889.310612
0.496875,2937.372252,87.682156,9831.521022
0.497188,2909.216869,-7.950769,9720.600125
0.497500,2981.399185,-29.138884,9730.701235
0.497812,2969.687223,52.774597,9828.793046
0.498125,2748.591681,-193.403397,9745.599267
0.498437,2810.086578,103.565769,9726.138916
0.498750,2873.159980,38.375639,9732.268659
0.499063,2847.584379,64.360284,9732.911313
0.499375,2852.140760,-63.410750,9755.010142
0.499688,2763.591430,-2.279333,9799.537752
0.500000,2748.893594,50.165451,9833.838249
0.500313,2760.668391,16.545302,9748.753008
0.500625,2657.274051,178.155880,9808.509537
0.500938,2613.823166,215.447699,9901.553157
0.501250,2603.886437,-47.742386,9692.308863
0.501563,2614.160207,126.076421,9762.238683
0.501875,2565.225142,63.332506,9815.359907
0.502188,2500.777704,21.456981,9877.860919
0.502500,2479.936676,-56.874406,9717.097538
0.502812,2455.528482,-46.527551,9873.800186
0.503125,2443.313632,-28.662680,9952.457483
0.503437,2403.082161,-4.923245,9849.660178
0.503750,2224.330384,-60.496920,9736.833853
0.504062,2361.168883,-7.374171,9794.280741
0.504375,2104.800051,-142.116399,9727.207671
0.504687,2229.684342,51.720880,9767.454065
0.505000,2077.799344,-144.258996,9844.816840
0.505313,2130.313418,36.739340,9780.300130
0.505625,2116.283519,66.977870,9806.414380
0.505938,1824.045958,-61.038604,9529.360575
0.506250,1969.738588,-28.450369,9854.420686
0.506563,1886.714454,-8.948284,9809.088190
0.506875,1769.479943,-62.317490,9741.920880
0.507188,1779.471532,122.065137,9788.191689
0.507500,1648.673181,-20.307619,9655.641800
0.507812,1637.603520,118.669264,9800.088415
0.508125,1481.409740,-12.474392,9967.699537
0.508437,1567.095376,-71.797890,9766.934824
0.508750,1487.818027,-34.793809,9826.415274
0.509062,1435.797359,60.383585,9772.891557
0.509375,1257.686882,20.784073,9658.114692
0.509687,1393.031131,-14.983469,9753.851811
0.510000,1337.316075,-99.746566,9713.635656
0.510312,1103.198338,55.719848,9839.750968
0.510625,1008.415731,92.754566,9616.566038
0.510938,940.304645,-103.324112,9855.989608
0.511250,959.250648,8.361049,9794.307441
0.511563,916.799646,-60.220914,9744.619254
0.511875,703.044245,16.034534,9832.416536
0.512188,528.689522,-18.742771,9860.170068
0.512500,657.530548,71.056311,9699.841469
0.512813,545.706679,20.944766,9851.416372
0.513125,490.653538,31.404569,9809.040277
0.513437,446.002319,66.176584,9839.419136
0.513750,241.804775,105.690346,9749.130060
0.514062,263.641132,-39.566495,9810.936675
0.514375,161.164768,101.240363,9738.283293
0.514687,142.162279,12.554816,9913.634372
0.515000,136.753698,-28.010274,9801.836794
0.515312,-35.110463,-44.692028,9789.746201
0.515625,-177.926821,28.740112,9801.293722
0.515938,-81.827178,-101.588999,9938.349931
0.516250,-198.572011,-40.640572,9820.460594
0.516563,-345.504231,30.922635,9772.765530
0.516875,-547.682723,149.396526,9881.856004
0.517188,-545.876653,-196.964812,9800.892016
0.517500,-536.367316,36.395045,9879.989283
0.517813,-576.165614,-82.276698,9832.094132
0.518125,-734.936604,-73.796902,9924.791609
0.518437,-728.870578,-214.117786,9761.482952
0.518750,-886.372173,40.366410,9702.512289
0.519062,-940.028747,-73.027637,9879.898893
0.519375,-933.222812,235.184196,9750.748206
0.519687,-1067.563064,-16.246982,9761.432952
0.520000,-1103.484978,40.506957,9779.788802
0.520312,-1112.595657,-94.823163,9784.162082
0.520625,-1159.765596,-10.824507,9935.310109
0.520938,-1365.146067,-5.867242,9812.774979
0.521250,-1404.198889,-188.196291,9701.793517
0.521563,-1555.847576,-64.964446,9774.713651
0.521875,-1618.710852,-46.923110,9629.996647
0.522188,-1553.273841,78.541925,9867.151250
0.522500,-1681.832775,-54.378493,9830.992944
0.522813,-1850.767012,107.178557,9768.861848
0.523125,-1719.665007,-101.868673,9868.745394
0.523438,-1889.367380,0.025601,9862.407208
0.523750,-1905.496342,-20.668968,9764.947343
0.524062,-1904.164483,109.045270,9778.707455
0.524375,-1961.928976,-122.057875,9978.062375
0.524687,-2053.477469,-9.902430,9965.447167
0.525000,-2262.724764,-29.579324,9706.201810
0.525312,-2109.651724,-149.144706,9863.249794
0.525625,-2254.050145,141.509198,9887.040094
0.525937,-2369.902280,69.442998,9753.531737
0.526250,-2481.882905,172.424802,9679.281956
0.526563,-2245.572573,46.447259,9761.607807
0.526875,-2385.833271,11.085958,9813.773672
0.527188,-2432.394598,-44.314555,9850.017687
0.527500,-2435.131318,158.909160,9744.938097
0.527813,-2531.491291,-134.642234,9856.385236
0.528125,-2683.429505,100.207111,9857.063379
0.528438,-2548.306891,19.197900,9926.194160
0.528750,-2558.936969,-69.829731,9740.973433
0.529062,-2632.623055,-120.585204,9723.049463
0.529375,-2583.908754,-48.919728,9726.379628
0.529687,-2585.899172,-47.174869,9815.636668
0.530000,-2832.595922,-22.332423,9777.857380
0.530312,-2832.347167,-86.871963,9779.902914
0.530625,-2752.026997,119.743386,9689.417189
0.530937,-2833.638848,125.916639,9838.773944
0.531250,-2853.773324,65.099699,9885.957516
0.531563,-2816.882891,-50.888571,9784.213359
0.531875,-2851.798162,41.883299,9857.112570
0.532188,-2964.102215,28.011745,9691.628616
0.532500,-2934.399760,6.281814,9792.698769
0.532813,-3015.336368,-20.257494,9770.804037
0.533125,-2985.978389,52.277368,9900.413390
0.533438,-3069.602775,-114.349884,9752.008450
0.533750,-3146.283018,-2.792977,9770.202856
0.534062,-3035.163844,20.486849,9728.644669
0.534375,-3047.312670,-46.682816,9761.244480
0.534687,-2931.037465,-83.394508,9679.976119
0.535000,-2877.403338,-56.633776,9682.443794
0.535312,-3000.351174,-42.778938,9783.320511
0.535625,-2961.635144,-15.576783,9774.120151
0.535937,-3045.495508,-77.868458,9866.159116
0.536250,-3062.057176,133.546490,9770.112357
0.536563,-3002.086931,191.068908,9783.709128
0.536875,-2991.664110,-53.303344,9781.573099
0.537188,-2932.763577,9.855023,9893.099641
0.537500,-2933.177962,-57.067634,9850.015326
0.537813,-2793.420162,-9.205142,9630.166699
0.538125,-2925.533106,152.319377,9683.733187
0.538438,-3020.528478,93.448552,9780.450132
0.538750,-2857.194939,13.974751,9838.865882
0.539062,-2896.230093,5.072529,9751.334381
0.539375,-2801.877247,-12.954975,9739.198886
0.539687,-2701.207538,-129.525315,9754.967972
0.540000,-2813.836418,-9.719657,9767.201081
0.540312,-2737.969166,79.382792,9824.668216
0.540625,-2658.249799,-68.931278,9774.120079
0.540937,-2741.278809,-44.801150,9710.357816
0.541250,-2612.617941,-109.938068,9664.721766
0.541562,-2548.857247,-25.672044,9987.810072
0.541875,-2488.396623,-46.889679,9793.823365
0.542188,-2424.912373,-211.274533,9895.072429
0.542500,-2425.981197,19.708137,9810.742073
0.542813,-2395.100332,-20.730767,9770.689791
0.543125,-2492.187315,52.168831,9731.706828
0.543438,-2548.190195,-70.649488,9879.147810
0.543750,-2362.523714,-8.047457,9733.671533
0.544063,-2121.601196,0.868141,9771.135024
0.544375,-2174.550664,-82.672477,9918.644985
0.544687,-2311.232733,41.225480,9760.754871
0.545000,-2110.475749,-142.747032,9725.521706
0.545312,-1992.268678,-135.770510,9879.622328
0.545625,-2112.232939,138.593842,9818.320668
0.545937,-1860.215161,27.586168,9619.363233
0.546250,-1938.248741,-58.834414,9673.211361
0.546562,-1702.648001,66.574063,9768.706575
0.546875,-1721.652328,2.600131,9824.423931
0.547188,-1413.572317,-119.127030,9914.906489
0.547500,-1703.457989,-54.698195,9950.908626
0.547813,-1509.285963,26.233075,9955.089691
0.548125,-1583.668591,26.067081,9729.626712
0.548438,-1306.789109,-62.439051,9650.562514
0.548750,-1320.603535,10.809022,9769.662018
0.549063,-1188.022493,-94.898849,9623.054945
0.549375,-1183.690998,73.793285,9822.699735
0.549687,-1214.978421,-100.272738,9810.857378
0.550000,-1102.145631,68.416047,9796.602204
0.550312,-1076.940987,74.094720,9772.835919
0.550625,-989.030226,100.738945,9814.131686
0.550937,-820.629067,56.104111,9831.253139
0.551250,-672.862457,-74.285373,9809.053438
0.551562,-615.487540,-124.898623,9703.366268
0.551875,-568.204620,-58.040325,9849.401746
0.552188,-579.119140,56.881846,9874.461104
0.552500,-417.723923,-33.587270,9730.247641
0.552813,-450.852366,108.545795,9820.601658
0.553125,-289.926672,25.442122,9895.562930
0.553438,-163.077491,-105.206887,9790.553381
0.553750,-168.293874,34.403929,9753.453200
0.554063,-114.170108,73.646155,9765.662250
0.554375,-34.420520,-86.824226,9844.245907
0.554688,125.891413,-87.704026,9602.788229
0.555000,128.964804,-71.562538,9835.256225
0.555312,116.948142,61.089870,9850.013353
0.555625,273.937414,59.494621,9830.363745
0.555937,298.481424,38.483898,9732.476263
0.556250,579.276327,-35.832425,9753.379774
0.556562,536.473230,-16.698714,9757.831366
0.556875,493.625632,182.055308,9829.743924
0.557187,707.459125,35.910473,9857.756832
0.557500,818.433123,108.817846,9683.678506
0.557813,865.608185,75.199270,9766.859334
0.558125,880.403764,-32.653615,9877.604073
0.558438,994.214265,-6.352550,9755.879594
0.558750,1077.150811,159.118802,9697.011392
0.559063,1206.808403,184.460827,9824.950069
0.559375,1227.007748,56.964746,9863.294060
0.559688,1449.217268,-144.306247,9771.969506
0.560000,1320.884833,-41.335381,9881.876135
0.560312,1528.625503,-34.003087,9648.513057
0.560625,1476.016972,-19.323992,9776.152665
0.560937,1405.548564,21.383978,9974.075371
0.561250,1513.778498,-139.878625,9749.463453
0.561562,1527.177622,28.506991,9657.266746
0.561875,1598.876144,78.558243,9822.828908
0.562187,1894.243915,-9.836701,9789.383457
0.562500,1807.388996,105.404319,9623.667670
0.562813,1968.053556,53.089366,9806.144783
0.563125,1907.957640,27.040278,9820.195018
0.563438,2035.609721,-8.290733,9947.286452
0.563750,2008.947536,94.510952,9682.814713
0.564063,2216.747727,-8.475112,9750.786240
0.564375,2181.023742,104.401060,9770.663519
0.564688,2217.261934,70.466444,9894.485788
0.565000,2290.800397,10.823840,9822.846577
0.565312,2526.141020,178.646346,9904.683767
0.565625,2435.916207,-34.661946,9830.215760
0.565937,2512.656549,30.380421,9882.397044
0.566250,2391.339933,-54.793653,9793.092840
0.566562,2481.092764,-112.928178,9774.265677
0.566875,2597.192761,45.813078,9739.024492
0.567187,2464.853219,-14.158631,9853.417836
0.567500,2756.614960,70.307588,9766.073255
0.567813,2707.379778,-108.093361,9902.111124
0.568125,2718.208621,0.650637,9679.005916
0.568438,2735.802844,-2.275918,9720.736905
0.568750,2763.035783,-110.287517,9714.885533
0.569063,2769.749828,-120.152100,9846.489447
0.569375,2947.228759,9.569547,9620.900416
0.569688,2915.545919,-88.641335,9784.132701
0.570000,2982.345467,32.278387,9704.357668
0.570312,2879.703606,-24.781587,9885.862546
0.570625,2852.432739,-38.343422,9807.619618
0.570937,3047.253478,4.607657,9861.069455
0.571250,2856.823593,-50.936726,9820.460839
0.571562,2917.848374,29.647048,9897.038586
0.571875,3033.660175,91.499034,9786.729665
0.572187,3071.972092,79.269829,9752.318335
0.572500,2887.392232,-121.030191,9660.342969
0.572812,2974.830945,-30.784344,9722.995484
0.573125,3001.308598,-19.365666,9854.116708
0.573438,2988.923462,75.294169,9864.122188
0.573750,2929.468054,56.833167,9764.683926
0.574063,3048.042888,-64.536587,9867.882382
0.574375,2946.686679,-31.886316,9701.613334
0.574688,2961.581292,9.447482,9761.459228
0.575000,2791.742444,-28.032071,9835.784810
0.575313,2950.286415,109.539535,9713.972496
0.575625,2790.571552,77.166976,9731.699265
0.575937,2985.434334,9.498703,9822.688708
0.576250,2950.493282,101.421393,9703.359619
0.576562,2850.799181,-33.150131,9861.947306
0.576875,2882.223500,49.270722,9929.619647
0.577187,2854.058713,-66.898251,9804.407642
0.577500,2807.762825,49.243874,9902.677407
0.577812,2820.450920,124.098218,9917.560796
0.578125,2752.013066,-62.543215,9735.291301
0.578438,2692.214312,-13.154090,9753.960741
0.578750,2633.330459,90.502807,9754.854544
0.579063,2794.352755,153.367738,9771.739098
0.579375,2639.133206,-247.534976,9866.739154
0.579688,2582.924412,-155.495603,9772.193544
0.580000,2601.035045,-61.214547,9753.875925
0.580313,2469.891193,28.637655,9794.246805
0.580625,2425.897148,46.009871,9699.499953
0.580937,2463.051047,-40.329392,9744.793291
0.581250,2443.981497,-7.842309,9747.430380
0.581562,2366.010213,-203.788134,9758.367352
0.581875,2143.557796,56.853107,9830.157677
0.582187,2213.215651,38.740469,9826.850486
0.582500,2152.435300,57.345474,9884.063229
0.582812,2134.516678,170.016245,9838.551715
0.583125,1970.729862,-169.542149,9874.053816
0.583438,1898.875763,18.366970,9818.026151
0.583750,1912.779086,-63.723333,9694.352135
0.584063,1789.871494,-7.842684,9719.884324
0.584375,1712.968554,2.862208,9855.948761
0.584688,1727.892876,-29.495989,9861.343800
0.585000,1741.497281,37.694774,9872.969515
0.585313,1612.158594,-122.207801,9909.488255
0.585625,1622.229378,-33.708559,9765.060257
0.585938,1385.757771,12.916967,9723.314432
0.586250,1450.992203,31.218105,9861.136713
0.586562,1323.068924,0.687276,9807.443206
0.586875,1182.475158,26.884250,9840.057543
0.587187,1146.140587,-57.443750,9937.639247
0.587500,1037.666279,-71.224719,9864.602609
0.587812,1014.161449,21.090523,9751.949726
0.588125,896.902407,13.554777,9807.183749
0.588437,979.959187,-120.017519,9869.924456
0.588750,775.304383,-61.407159,9941.321090
0.589063,614.021471,164.740031,9745.825701
0.589375,633.477895,-193.078129,9633.341234
0.589688,601.360470,28.454916,9778.067332
0.590000,467.109290,26.439977,9837.328138
0.590313,481.393157,59.797119,9727.089117
0.590625,262.023805,13.069586,9785.845959
0.590938,186.920954,53.170988,9877.099179
0.591250,303.243142,-4.490163,9900.502844
0.591562,95.257789,2.440164,9807.055854
0.591875,57.761171,-42.251588,9698.941151
0.592187,-25.912571,-146.059795,9727.885993
0.592500,-99.474333,33.830563,9709.143330
0.592812,-221.560185,136.566305,9950.033205
0.593125,-319.792311,-35.622899,9940.576872
0.593437,-298.765929,-17.001288,9811.239245
0.593750,-502.405351,-24.178251,9693.090824
0.594063,-533.562947,41.928218,9718.622893
0.594375,-567.270361,-33.735507,9777.027482
0.594688,-730.803933,-12.543074,9643.718678
0.595000,-898.328793,-50.021180,9807.040675
0.595313,-818.397102,-125.994502,9813.964810
0.595625,-846.151832,35.618329,9734.839056
0.595938,-987.204777,-45.869289,9901.541476
0.596250,-1214.658854,32.027041,10010.070114
0.596562,-1106.700718,-70.445726,9782.674345
0.596875,-1075.980093,5.762273,9807.659038
0.597187,-1425.506322,-64.338966,9839.656533
0.597500,-1589.138198,-46.054187,9898.159972
0.597812,-1466.073928,7.367621,9776.444274
0.598125,-1510.761992,94.865459,9817.472225
0.598437,-1524.235343,2.474570,9856.720097
0.598750,-1589.133244,-35.856594,9928.079286
0.599063,-1712.742548,-15.437613,9740.635408
0.599375,-1742.944917,85.104297,9768.220239
0.599688,-1823.254382,-8.730818,9688.420550
0.600000,-1902.699127,-111.884023,9791.717933
0.600313,-1978.367329,108.705158,9854.187698
0.600625,-2045.977150,-68.409336,9691.510112
0.600938,-2037.415558,35.041988,9772.531391
0.601250,-2117.895326,-73.457254,9931.173775
0.601562,-2238.758056,-52.452318,9871.520864
0.601875,-2173.539807,106.848466,9705.512398
0.602187,-2368.575848,-65.839781,9680.354181
0.602500,-2380.450911,13.399675,9801.103888
0.602812,-2400.801775,167.843951,9683.438147
0.603125,-2607.524885,28.130457,9819.057632
0.603437,-2533.681979,90.779118,9839.360829
0.603750,-2480.902233,74.949339,9769.510045
0.604062,-2525.962563,-107.603017,9644.812274
0.604375,-2723.006656,-44.930073,9737.633865
0.604688,-2732.545570,-0.907588,9737.826261
0.605000,-2787.957361,-16.449702,9779.652994
0.605313,-2756.404236,94.869416,9841.197948
0.605625,-2775.151303,-40.754450,9800.843646
0.605938,-2924.864083,-58.419961,9664.521728
0.606250,-2803.560622,91.776432,9649.005526
0.606563,-2848.849327,35.471059,9642.000796
0.606875,-2884.111330,-9.092134,9700.564048
0.607187,-2952.771599,3.098947,9708.088418
0.607500,-2934.330918,-58.747743,9812.320355
0.607812,-3076.480438,101.331572,9950.969170
0.608125,-2934.924947,-16.044231,9810.486303
0.608437,-2949.766739,-88.084914,9876.765838
0.608750,-2985.592198,-10.028832,9675.641659
0.609062,-3078.337405,178.506716,9844.066952
0.609375,-2893.521851,111.256147,9891.215920
0.609688,-2909.199344,-29.133800,9788.416210
0.610000,-3145.844641,-63.075249,10019.281527
0.610313,-2967.440690,-61.543531,9730.137818
0.610625,-2985.661286,122.305241,9939.259865
0.610938,-3193.500208,-13.820098,9980.566695
0.611250,-2946.196286,12.874794,9837.657079
0.611563,-2927.018596,5.808642,9812.848641
0.611875,-2910.517750,30.493977,9753.837327
0.612187,-2940.917645,19.519631,9897.556438
0.612500,-2988.885866,-48.569533,9708.074145
0.612812,-2960.355236,72.026893,9646.182502
0.613125,-2860.700277,82.478092,9724.838991
0.613437,-2787.311787,-131.512637,9667.188355
0.613750,-2892.636858,-35.985383,9755.726189
0.614062,-2849.960882,-68.930682,9584.272056
0.614375,-2745.543496,-10.416011,9611.140927
0.614688,-2937.179729,66.875681,9896.656616
0.615000,-2702.005493,33.185263,9730.520963
0.615313,-2720.231372,-104.135177,9918.467830
0.615625,-2836.511754,-83.767705,9802.303344
0.615938,-2566.929330,38.131897,9801.758697
0.616250,-2657.593010,-23.318904,9780.799710
0.616563,-2482.096493,-75.741533,9773.716206
0.616875,-2392.059567,-44.024898,9771.786669
0.617188,-2549.861451,26.345005,9869.784529
0.617500,-2497.984411,18.354119,9817.419197
0.617812,-2355.493061,6.590389,9872.004849
0.618125,-2439.026703,97.198814,9919.925984
0.618437,-2192.313404,-29.473932,9759.467700
0.618750,-2179.242860,103.049620,9816.362503
0.619062,-2060.371677,45.791004,9676.539513
0.619375,-2220.807432,80.541075,9754.590695
0.619687,-2002.224005,38.399254,9892.920147
0.620000,-1920.077542,-145.847309,9854.953580
0.620313,-2032.937478,51.186839,9881.701485
0.620625,-1758.688124,-66.653713,9861.493412
0.620938,-1869.417564,-143.498079,9874.721878
0.621250,-1680.484035,-86.539919,9875.996096
0.621563,-1728.351844,34.263112,9813.814785
0.621875,-1494.411978,-195.748343,9687.709948
0.622188,-1351.694764,-60.924551,9781.221127
0.622500,-1407.309141,41.369119,9768.869541
0.622812,-1336.017522,77.116870,9839.903811
0.623125,-1162.552154,-59.689107,9720.626573
0.623437,-1223.128751,44.494213,9895.505101
0.623750,-1107.838274,19.708152,9811.661075
0.624062,-970.448780,-94.452376,9907.561384
0.624375,-923.071428,-3.886936,9825.939232
0.624687,-754.288950,23.883174,9876.136939
0.625000,-703.748018,-89.702696,9817.138340
0.625313,-566.642171,43.339777,9745.707761
0.625625,-636.826003,-56.943495,9652.005101
0.625938,-466.401380,102.798657,9791.454289
0.626250,-535.440792,127.491821,10020.344618
0.626563,-318.558519,100.719903,9766.797426
0.626875,-169.473815,-44.700720,9871.787234
0.627188,-39.961556,-45.464786,9784.714673
0.627500,-237.848278,-94.439183,9719.641707
0.627812,-70.334288,10.493270,9864.451529
0.628125,82.020573,-56.531859,9741.032417
0.628437,41.093177,62.367352,9719.277367
0.628750,235.672670,-136.936541,9948.194795
0.629062,318.040860,-25.219621,9783.819815
0.629375,320.777759,164.313676,9747.501893
0.629687,399.374501,156.085931,9784.568203
0.630000,451.487963,-18.435031,9793.331611
0.630313,629.261323,79.817772,9860.941136
0.630625,785.843837,-65.669278,9801.196353
0.630938,790.464177,49.781772,9802.759438
0.631250,1064.899609,-67.055764,9881.190643
0.631563,812.069022,-79.618991,9760.891828
0.631875,961.544473,-105.675415,9804.101134
0.632188,1137.760649,-54.954200,9846.789384
0.632500,1073.312570,54.750834,9690.523707
0.632812,1266.470582,150.750024,9977.101611
0.633125,1378.645527,-15.467922,9889.721804
0.633437,1403.583044,0.490001,9887.742335
0.633750,1445.634551,4.104951,9915.752975
0.634062,1609.354348,138.591829,9743.956159
0.634375,1639.794795,77.973739,9660.622366
0.634687,1733.973506,14.059772,9642.998603
0.635000,1788.882725,-159.985681,9861.086747
0.635312,1761.036062,-251.897041,9690.497157
0.635625,1793.538125,140.916369,9661.594790
0.635938,1914.716625,56.055595,9952.813068
0.636250,2021.595073,128.147981,9764.172713
0.636563,2054.358324,-198.142722,9801.151005
0.636875,2203.476645,-16.277310,9695.334268
0.637188,2207.704684,71.157211,9699.281190
0.637500,2320.439376,-107.728129,9784.464406
0.637813,2308.586571,-42.986709,9694.137314
0.638125,2296.146562,-46.799388,9672.470986
0.638437,2470.081032,-108.627448,9863.415294
0.638750,2492.500312,-53.037138,9880.535252
0.639062,2434.958033,-79.308847,9785.680417
0.639375,2514.440365,-47.937593,9889.234615
0.639687,2809.412267,73.808384,9840.327380
0.640000,2366.229437,44.678765,9731.014530
0.640312,2760.014657,-77.767157,9846.191484
0.640625,2713.309716,-101.243488,9710.820787
0.640938,2738.646274,37.283837,9730.905956
0.641250,2753.771797,84.509907,9764.383444
0.641563,2767.910534,-97.201478,9967.924344
0.641875,3023.013369,29.266219,9814.619624
0.642188,2828.604881,7.884339,9807.942123
0.642500,2863.805500,-111.574654,9811.895798
0.642813,2972.905109,58.775372,9905.889067
0.643125,2959.738437,21.016999,9870.798745
0.643437,2932.891615,89.301331,9816.861930
0.643750,2939.632008,30.518591,9684.538709
0.644062,2869.996198,-58.891619,9814.145673
0.644375,3070.715328,48.768816,9852.908450
0.644687,2910.090565,-106.200175,9845.570323
0.645000,2807.872798,56.721710,9847.051878
0.645312,3085.284103,58.157829,9734.678666
0.645625,3062.780582,-6.235145,9885.182688
0.645938,3029.032623,125.169481,9737.339806
0.646250,2957.180027,61.146360,9764.354789
0.646563,3086.212203,16.260388,9648.774430
0.646875,2897.990126,-33.574255,9801.194886
0.647188,2799.462917,-6.434582,9827.647732
0.647500,2972.088445,59.273941,9809.931725
0.647813,3007.410327,35.690801,9737.722359
0.648125,2974.813113,31.862267,9685.255635
0.648438,3069.831714,-21.355284,9770.352473
0.648750,2948.677501,-75.475983,9853.617342
0.649062,2839.730832,-130.625468,9800.739965
0.649375,2815.251036,-19.617296,9748.232992
0.649687,2871.680454,6.703880,9789.507888
0.650000,2764.371097,-225.573192,9831.845817
0.650312,2724.641421,-179.293344,9747.151517
0.650625,2559.195580,166.537581,9826.026508
0.650937,2636.084471,-92.831871,9878.145939
0.651250,2517.277701,-96.247476,9701.671934
0.651563,2596.167494,-25.741851,9770.613049
0.651875,2543.499234,-4.062625,9717.197727
0.652188,2542.647869,-71.380601,9695.690954
0.652500,2579.393805,-107.204984,9642.938806
0.652813,2372.316194,-11.169486,9749.366367
0.653125,2448.607011,91.166287,9900.947632
0.653438,2189.459454,109.700328,9782.252504
0.653750,2235.394934,-53.756882,9766.246242
0.654062,2240.543611,13.531901,9727.357511
0.654375,2260.217423,-102.436906,9762.794644
0.654687,1955.224541,136.452448,9729.041760
0.655000,1959.111321,-33.751320,9720.040913
0.655312,1925.756390,118.495986,9661.934179
0.655625,1839.878971,-93.786595,9808.409364
0.655937,1703.782680,-46.991345,9825.050581
0.656250,1580.051157,43.042543,10081.036210
0.656563,1541.522847,11.139559,9894.608036
0.656875,1560.379866,-102.708965,9911.387382
0.657188,1386.250388,144.307882,9916.010821
0.657500,1559.780192,10.326455,9803.519467
0.657813,1440.237987,-12.683292,10019.449980
0.658125,1113.170680,81.662439,9816.895976
0.658438,1147.545029,-94.318914,9808.778470
0.658750,1213.339545,-18.953087,9773.797511
0.659062,1143.121742,27.606494,9835.798481
0.659375,1035.614701,190.222409,9765.309684
0.659687,750.563989,-17.213723,9705.304755
0.660000,752.877765,195.924877,9762.717041
0.660312,800.992088,-29.464567,9718.189322
0.660625,623.394866,31.815412,9770.957618
0.660937,494.435039,12.072113,9839.833249
0.661250,486.293900,51.504084,9734.099076
0.661563,439.491599,110.810396,9943.015964
0.661875,286.464753,23.641046,9792.758209
0.662188,209.223591,-47.594340,9617.152796
0.662500,189.419551,22.234012,9874.687637
0.662813,-27.308961,-29.371526,9805.494779
0.663125,-141.379447,13.568749,9727.564701
0.663438,-93.392363,-86.882696,9936.291613
0.663750,-336.158854,-151.441067,9857.992269
0.664062,-286.580361,-60.315873,9764.291391
0.664375,-470.087010,89.816981,9743.077853
0.664687,-429.955536,67.740165,9695.311745
0.665000,-676.877310,115.005829,9814.186994
0.665312,-575.576663,-39.757534,9685.770824
0.665625,-727.380468,-91.976812,9766.112181
0.665937,-857.689296,-38.976442,9754.975991
0.666250,-984.844151,-6.617343,9783.252243
0.666562,-1010.269971,33.013972,9788.859037
0.666875,-1152.830693,-43.149633,9820.029137
0.667188,-1254.960039,24.871263,9843.020261
0.667500,-1152.535415,-23.451052,9710.669756
0.667813,-1269.043166,124.117948,9698.450010
0.668125,-1295.439989,13.004689,9773.417891
0.668438,-1578.027805,-96.040994,9838.121462
0.668750,-1700.445401,66.821787,9723.162371
0.669063,-1745.036823,79.197092,9894.318023
0.669375,-1638.628944,68.040200,9799.617470
0.669687,-1697.058850,44.612399,9697.989356
0.670000,-1979.190961,24.308050,9809.179931
0.670312,-1817.105065,-54.562585,9812.981455
0.670625,-2000.183683,-52.317970,9797.766765
0.670937,-2125.711088,22.500513,9809.456957
0.671250,-2099.426863,82.242703,9752.795068
0.671562,-2108.974759,-18.418117,9811.071425
0.671875,-2231.165644,-171.424395,9838.223492
0.672188,-2285.767510,-51.054977,9765.579344
0.672500,-2394.897416,100.489169,9815.053133
0.672813,-2495.075680,161.638024,9789.881790
0.673125,-2463.433079,161.159426,9759.922754
0.673438,-2613.275761,-106.494907,9811.168693
0.673750,-2482.938481,-71.887085,9791.272774
0.674063,-2644.993054,-96.680699,9839.923940
0.674375,-2515.293292,-114.802562,9817.785459
0.674687,-2788.644030,92.492927,9842.068759
0.675000,-2588.076241,37.656432,9676.991370
0.675312,-2808.124595,13.997639,9990.202326
0.675625,-2843.328741,14.225466,9717.967378
0.675937,-2780.613578,89.210719,9747.489497
0.676250,-2761.837077,-78.909702,9877.345181
0.676562,-2864.682629,-91.842245,9661.151193
0.676875,-2915.088105,29.179605,9922.085174
0.677188,-2749.237655,1.346042,9874.174834
0.677500,-2888.420851,-108.772652,9814.844742
0.677813,-3043.082297,-4.010392,9798.889211
0.678125,-2983.035749,-23.066481,9748.311404
0.678438,-2839.009453,-105.298403,9886.263786
0.678750,-2958.294815,9.058945,9704.958425
0.679063,-2926.168374,4.655859,9775.949233
0.679375,-2834.465960,-19.172804,9866.467796
0.679688,-3047.494881,-20.598018,9885.682489
0.680000,-2969.829741,16.469262,9842.280300
0.680312,-3050.670464,-55.046940,9981.636079
0.680625,-2992.548055,-10.503979,9923.573017
0.680937,-2941.308183,-109.671126,9722.876599
0.681250,-3081.002348,-103.746517,9745.666896
0.681562,-2949.657990,32.733990,9931.675925
0.681875,-2934.618532,-88.301017,9808.966055
0.682187,-2843.701624,197.779238,9792.942393
0.682500,-2955.374675,30.620077,9761.787836
0.682813,-2987.025453,-92.013911,9802.047271
0.683125,-2828.041023,-92.553006,9873.763395
0.683438,-2922.043194,3.735104,9774.735108
0.683750,-2787.102732,3.419226,9782.119245
0.684063,-2723.621696,-57.438191,9749.330446
0.684375,-2804.477565,24.157353,9852.534019
0.684688,-2706.619890,-18.946812,9839.162183
0.685000,-2740.360992,-51.015325,10001.365635
0.685312,-2842.871360,-9.603021,9955.549415
0.685625,-2687.824713,6.604094,9854.080095
0.685937,-2692.206946,-5.737861,9824.340770
0.686250,-2474.835817,-98.546726,9872.956024
0.686562,-2511.188013,5.564784,9720.271581
0.686875,-2384.107540,32.226084,9697.285829
0.687187,-2321.567778,-61.123994,9692.898795
0.687500,-2175.428744,-42.133985,9805.396922
0.687813,-2229.586290,-139.371670,9690.237677
0.688125,-2173.087444,-1.166995,10048.423449
0.688438,-2037.590609,-67.853672,9911.772554
0.688750,-1884.001845,-73.993001,9706.380538
0.689063,-1953.325239,-93.550047,9825.681758
0.689375,-1851.717370,-42.048596,9863.427796
0.689688,-1824.805313,74.651316,9679.583258
0.690000,-1794.279930,16.778084,9932.012661
0.690312,-1788.993740,-57.511754,9854.802682
0.690625,-1597.388700,39.935369,9760.701038
0.690937,-1536.772134,115.941463,9876.438910
0.691250,-1458.144550,35.494803,9944.529830
0.691562,-1200.785280,65.433821,9878.353890
0.691875,-1307.323715,-51.954259,9681.902038
0.692187,-1173.157874,-35.805328,9827.337700
0.692500,-1145.884474,26.172859,9839.851132
0.692813,-940.511494,47.849236,9794.939943
0.693125,-974.735656,-72.003463,9763.159357
0.693438,-717.730216,66.325210,9860.091125
0.693750,-802.701785,26.636629,9813.050476
0.694063,-633.319290,-6.364689,9927.896034
0.694375,-527.255586,-98.033509,9812.013304
0.694688,-540.735129,-2.313287,9839.795262
0.695000,-365.483580,125.208814,9768.542709
0.695312,-340.830790,95.891174,9806.305240
0.695625,-318.388284,60.956148,9708.556694
0.695937,-222.724738,-75.504368,9739.481635
0.696250,-53.324302,-93.484633,9846.937363
0.696562,152.128116,150.598378,9662.185256
0.696875,58.485230,45.591394,9814.620132
0.697187,230.450813,33.567123,9780.661820
0.697500,210.828581,-119.795136,9699.825541
0.697812,384.593412,46.577575,9766.034576
0.698125,347.639924,-122.227916,9710.716666
0.698438,476.903371,-64.564672,9787.375484
0.698750,626.953271,44.366425,9882.938301
0.699063,654.364136,9.790592,9838.201651
0.699375,778.974511,-46.191889,9690.094726
0.699688,967.211015,-52.629267,9769.409297
0.700000,961.088166,2.030402,9779.890903
0.700313,997.566356,-8.978955,9777.760970
0.700625,1039.253069,-61.539536,9894.962833
0.700937,1177.680692,-28.884758,9897.344804
0.701250,1393.756294,26.643634,9875.139368
0.701562,1374.886325,66.345477,9917.918801
0.701875,1448.400854,-12.987697,9847.053164
0.702187,1595.420136,-188.839665,9938.346122
0.702500,1680.809871,-41.543631,9881.766430
0.702812,1768.845776,-67.101613,9753.938962
0.703125,1732.816769,44.828756,9773.386765
0.703438,1759.800473,68.335664,9840.332485
0.703750,1769.503230,-100.820097,9692.922298
0.704063,1916.653330,-42.288124,9699.493237
0.704375,2008.428294,-75.193314,9799.063077
0.704688,2161.490459,-17.789903,9881.549824
0.705000,2191.628993,21.083993,9899.077712
0.705313,2181.652422,88.593322,9794.043106
0.705625,2356.950087,1.836972,9709.602746
0.705937,2242.378677,-47.907002,9788.972850
0.706250,2313.843047,129.309792,9750.171078
0.706562,2356.662572,80.425431,9731.307413
0.706875,2414.068522,-54.352518,9852.867230
0.707187,2529.563226,17.024340,9756.454557
0.707500,2528.287078,-4.044697,9759.553731
0.707812,2578.943954,34.090962,9866.881808
0.708125,2788.511790,-69.441714,9709.723950
0.708438,2603.025050,-50.109174,9812.889605
0.708750,2674.337748,-90.143833,9806.155833
0.709063,2772.072916,79.925464,9805.846020
0.709375,2858.363651,11.853631,9838.133560
0.709688,2890.934718,104.391104,9788.581518
0.710000,2857.306885,26.546855,9686.602722
0.710313,2873.128535,180.515712,9875.490930
0.710625,2902.557313,-33.830104,9823.266736
0.710938,3002.171142,25.428941,9724.640864
0.711250,2884.944412,1.517108,9824.358300
0.711562,2783.878275,-172.353665,9824.306476
0.711875,2997.670034,15.981935,9769.174817
0.712187,2897.257979,-8.555958,9837.754549
0.712500,2991.463932,43.022952,9590.375775
0.712812,3110.036004,5.450847,9768.662060
0.713125,3006.559615,-51.634313,9710.764091
0.713437,3142.869083,-65.945262,9767.396666
0.713750,2863.000467,-93.695385,9826.951434
0.714063,3001.176685,-87.119085,9747.229256
0.714375,3002.312421,-107.277335,9885.064465
0.714688,3023.842865,61.966476,9848.409556
0.715000,2882.684867,123.811890,9842.184726
0.715313,2934.865056,-69.518644,9716.698440
0.715625,2910.069098,-53.872476,9852.766290
0.715938,2883.170428,-204.124181,9698.548724
0.716250,2739.110692,95.581281,9805.044014
0.716562,2681.330853,-14.067081,9588.516056
0.716875,2830.535205,126.745440,9728.986218
0.717187,2780.327977,30.861403,9833.602298
0.717500,2718.317118,122.793358,9788.562316
0.717812,2726.623077,115.492183,9776.622954
0.718125,2719.901141,84.912726,9832.175380
0.718437,2495.803452,-24.115333,9826.117733
0.718750,2604.422299,-72.120997,9755.004573
0.719063,2611.872686,-70.340019,9876.536625
0.719375,2522.835798,-63.247949,9877.751223
0.719688,2434.518666,23.394260,9788.590125
0.720000,2387.650058,52.654339,9863.875280
0.720313,2157.635113,35.376463,9853.015345
0.720625,2173.143474,98.373727,9855.012141
0.720938,2232.480184,-86.165944,9849.725572
0.721250,2204.711613,-66.324906,9716.054346
0.721562,2056.743413,-69.393134,9803.969201
0.721875,1915.304813,49.502326,9817.895176
0.722187,1870.716596,-94.737304,9779.944517
0.722500,1878.307448,20.798872,9850.117521
0.722812,1898.248841,36.703146,9774.372685
0.723125,1724.906296,-58.047984,9629.313618
0.723437,1543.363492,203.322190,9901.322286
0.723750,1556.990747,89.622514,9727.460629
0.724063,1462.265320,-3.992466,9717.259105
0.724375,1538.638625,23.856873,9772.762296
0.724688,1312.175270,-57.548264,9807.723958
0.725000,1183.990713,69.010004,9734.618079
0.725313,1090.538282,-125.113576,9794.237141
0.725625,912.652360,-12.830645,9814.937001
0.725938,840.177083,119.301553,9917.954160
0.726250,798.855152,35.548000,9664.334025
0.726562,683.943036,-1.419657,9893.972602
0.726875,675.177441,-147.180256,9728.016799
0.727187,578.288004,3.668452,9982.962242
0.727500,555.456663,5.777369,9887.771235
0.727812,510.870104,-89.064340,9817.261244
0.728125,310.942862,18.252584,9759.758613
0.728437,191.623417,-49.723118,9696.627516
0.728750,-32.955829,-40.361203,9862.554225
0.729062,54.498061,128.268429,9783.153003
0.729375,-14.782923,-48.605389,9811.113642
0.729688,-220.963716,-16.102076,9677.657782
0.730000,-282.247048,70.883828,9782.529969
0.730313,-398.229287,-12.591169,9774.295207
0.730625,-348.593531,88.030778,9677.349991
0.730938,-474.381551,-73.035794,9745.683786
0.731250,-516.871041,35.957218,9758.220543
0.731563,-800.370353,-101.787514,9835.773463
0.731875,-580.108100,-136.894745,9725.494882
0.732187,-949.690350,-85.104443,9717.001527
0.732500,-1050.775183,-2.861142,9748.949620
0.732812,-1040.344279,100.238801,9801.643167
0.733125,-1185.589620,-43.438032,9748.895731
0.733437,-1080.474894,31.629993,9798.659557
0.733750,-1342.390961,16.968649,9775.932946
0.734062,-1446.533917,-49.195440,9880.214356
0.734375,-1394.625656,-37.976570,9759.987305
0.734688,-1454.559274,151.542924,9830.135585
0.735000,-1697.624289,-35.717028,9869.577619
0.735313,-1745.442226,-44.044630,9806.548960
0.735625,-1811.079124,85.070502,9773.010239
0.735938,-1868.576015,52.179901,9846.254413
0.736250,-1790.447494,0.850367,9868.192421
0.736563,-1896.552313,26.415551,9821.904821
0.736875,-1979.833335,42.712436,9897.617197
0.737187,-2029.225422,-23.836747,9860.206023
0.737500,-2193.829501,-51.124247,9896.095121
0.737812,-2187.360887,-65.653798,9687.298603
0.738125,-2322.874340,-94.687702,9742.705555
0.738437,-2434.873245,43.112751,9897.301191
0.738750,-2296.832960,-22.315345,9774.338697
0.739062,-2623.838999,14.375828,9651.034250
0.739375,-2533.752007,16.882150,9832.963842
0.739688,-2628.545462,-9.824776,9831.154440
0.740000,-2761.434732,74.097389,9735.280518
0.740313,-2702.333860,214.278573,9851.800342
0.740625,-2707.281767,9.503230,9837.613830
0.740938,-2714.200136,-77.297839,9876.814115
0.741250,-2852.814542,53.848229,9972.559743
0.741563,-2759.518269,-102.663510,9779.068351
0.741875,-2825.552251,-27.512022,9826.225872
0.742188,-2812.881381,103.853568,9728.688194
0.742500,-3056.726040,-20.503474,9771.269899
0.742812,-2960.946793,-5.276198,9854.513120
0.743125,-2993.366006,-12.679671,9773.619605
0.743437,-2914.501003,84.787327,9912.877093
0.743750,-3033.344059,-8.366203,9769.504952
0.744062,-3025.915001,22.806804,9864.011084
0.744375,-3084.343774,-74.776074,9794.298689
0.744687,-3093.517383,43.856197,9771.066776
0.745000,-3074.903028,-38.202087,9841.871988
0.745313,-2922.286897,21.303069,9742.314659
0.745625,-3080.831586,189.277280,9817.964102
0.745938,-3184.164409,36.757868,9836.052301
0.746250,-2956.788770,1.639686,9717.824754
0.746563,-3004.043883,-12.173122,9756.907472
0.746875,-2908.469687,2.049268,9907.696526
0.747188,-2891.886583,-21.241092,9965.484528
0.747500,-2938.872644,104.212397,9829.849410
0.747812,-2923.770340,-178.845212,9908.384174
0.748125,-2907.873490,-8.702313,9751.555688
0.748437,-2835.060715,35.908069,9871.360338
0.748750,-2864.513751,103.169923,9862.720972
0.749062,-2751.916740,117.868159,9676.470546
0.749375,-2619.491793,-95.839895,9821.592407
0.749687,-2743.175536,-23.718434,9823.241840
0.750000,-2697.298179,-71.535374,9754.299809
0.750313,-2652.588034,22.959516,9947.061353
0.750625,-2504.809072,15.786251,9879.221351
0.750938,-2450.877819,-49.081684,9875.494058
0.751250,-2335.773774,12.955251,9706.096601
0.751563,-2338.081004,-46.378502,9760.180796
0.751875,-2327.176862,-65.120791,9914.699081
0.752188,-2240.996880,93.617868,9886.348098
0.752500,-2319.670010,-29.376060,9906.423992
0.752812,-2105.763096,40.127095,9717.104231
0.753125,-2070.403337,-16.846482,9773.537327
0.753437,-1849.730254,65.285960,9718.953219
0.753750,-1835.224696,-53.330461,9659.745638
0.754062,-1938.598598,-18.321035,9859.474057
0.754375,-1843.678202,52.333414,9608.018583
0.754687,-1652.153927,-32.229806,9914.552994
0.755000,-1809.771339,-163.065514,10029.834007
0.755313,-1638.561074,-86.957921,9666.774923
0.755625,-1454.688113,-87.393427,9868.308307
0.755938,-1350.338872,150.176266,9938.907774
0.756250,-1303.161405,-146.903079,9802.859890
0.756563,-1139.782559,28.203420,9834.418125
0.756875,-1168.057589,-141.067952,9827.621108
0.757188,-1051.186420,9.732193,9829.590456
0.757500,-985.664103,99.850878,9688.122419
0.757812,-967.980988,-84.359907,9900.298606
0.758125,-786.527766,-16.773292,9753.074731
0.758437,-742.942692,109.657626,10019.718917
0.758750,-600.475860,-11.780611,9757.772265
0.759062,-723.138814,-55.572642,9872.096814
0.759375,-412.391796,114.156807,9888.456165
0.759687,-370.859512,12.810814,9932.566249
0.760000,-282.688938,2.337737,9751.828258
0.760312,-135.748217,-21.387706,9756.278436
0.760625,-82.661634,47.158834,9790.820299
0.760938,123.481362,81.580704,9712.273213
0.761250,243.495652,-19.187910,9772.421717
0.761563,308.703735,59.911923,9789.475305
0.761875,409.310946,182.071644,9953.787551
0.762188,455.101983,149.788758,9782.879606
0.762500,521.990168,21.351403,9842.896192
0.762813,509.982724,25.494809,9848.392292
0.763125,675.231190,64.695146,9840.320887
0.763437,893.012576,-101.443810,9791.422486
0.763750,948.329727,-145.512773,9851.484782
0.764062,938.127622,-102.332584,9912.834995
0.764375,1074.956203,-218.958554,9845.246225
0.764687,1238.770944,88.962977,9981.652535
0.765000,1228.383757,76.991302,9822.946640
0.765312,1456.423244,-73.164349,9967.778036
0.765625,1350.872187,-77.247237,9811.442011
0.765938,1557.373820,86.526866,9929.205182
0.766250,1631.378516,-66.944486,9897.776522
0.766563,1669.671495,52.779658,9892.963499
0.766875,1758.312060,84.006096,9883.879824
0.767188,1853.892699,-71.194534,9882.403247
0.767500,1704.534471,1.611869,9856.912727
0.767813,1996.235812,-15.767767,9723.733510
0.768125,2121.080661,-103.450667,9905.289388
0.768437,2130.614395,75.110739,9814.409437
0.768750,2256.548836,11.935399,9833.730736
0.769062,2136.071980,-6.628110,9825.106226
0.769375,2287.535969,53.581383,9795.727193
0.769687,2379.576014,-24.103712,9911.766007
0.770000,2390.119720,-103.723063,9757.250103
0.770312,2561.408810,11.172090,9787.187387
0.770625,2558.344800,38.996496,9747.285762
0.770938,2529.179987,-23.064686,9790.679437
0.771250,2682.992603,34.833424,9860.771461
0.771563,2728.434964,-57.280123,9795.098208
0.771875,2670.896374,-82.825559,9809.219609
0.772188,2795.620083,-116.378968,9669.997349
0.772500,2812.836518,124.922818,9798.116972
0.772813,2845.241362,-145.969751,9695.031517
0.773125,2748.451483,103.421508,9736.936260
0.773438,2978.740878,155.892553,9784.758278
0.773750,2954.280956,93.811706,9753.752594
0.774062,2923.232102,-84.506954,9828.858298
0.774375,2972.861645,86.458012,9729.872911
0.774687,2988.582230,-53.421625,9866.058768
0.775000,2951.276519,-0.807180,9863.130421
0.775312,2939.681900,160.592833,9658.453242
0.775625,3001.837739,-3.441911,9840.510209
0.775937,2951.143689,193.469971,9934.928692
0.776250,2961.562199,112.402086,9750.572286
0.776563,2905.887688,-182.920462,9756.224826
0.776875,2972.243233,37.463735,9855.068978
0.777188,3067.096543,-79.398713,9662.701187
0.777500,2993.207832,-38.113320,9762.458825
0.777813,2966.278403,-23.609249,9713.038733
0.778125,2920.567337,-48.416741,9945.335868
0.778438,2892.110588,-38.442011,9775.611499
0.778750,2783.874627,-26.066500,9766.425684
0.779062,3009.926033,9.143526,9737.243313
0.779375,2791.064138,-6.076550,9824.479956
0.779687,2697.745364,-4.783845,9882.253176
0.780000,2815.099403,17.266468,9720.079307
0.780312,2766.065418,-78.307436,9832.288892
0.780625,2664.222418,116.918578,9848.022839
0.780937,2544.924489,-10.740354,9913.862529
0.781250,2506.771400,-68.611641,9904.708276
0.781563,2694.004138,74.899779,9832.351421
0.781875,2508.262936,120.222686,9848.537325
0.782188,2411.756788,-76.704994,9825.398055
0.782500,2556.498366,-73.625794,9905.613885
0.782813,2305.602532,-38.314747,9831.442759
0.783125,2214.126504,-120.072623,9710.790017
0.783438,2268.073820,-59.293188,9741.611378
0.783750,2188.094182,-11.109966,9806.689906
0.784062,2215.707013,-11.636688,9929.152014
0.784375,1895.943865,-51.193906,9695.238496
0.784687,1971.199619,-56.902704,9921.609672
0.785000,1738.154931,216.373841,9915.069658
0.785312,1834.286417,-80.913326,9787.080852
0.785625,1666.861712,85.141743,9781.073999
0.785937,1602.246030,82.755368,9839.045779
0.786250,1498.585537,-75.750487,9739.382332
0.786563,1541.184263,-18.306677,9823.845668
0.786875,1518.994428,77.543455,9884.084124
0.787188,1295.879503,-3.067804,9669.263361
0.787500,1194.408170,177.462606,9826.010629
0.787813,1085.663099,114.875395,9733.688111
0.788125,1077.469154,147.246994,9743.265196
0.788438,861.800455,-100.927270,9862.348505
0.788750,1135.456535,-67.285351,9749.866587
0.789062,739.988982,-41.321493,9798.821027
0.789375,801.551587,106.935674,9797.636493
0.789687,581.570431,-197.522464,9717.915183
0.790000,364.426135,42.008837,9757.459916
0.790312,253.190072,-4.696307,9804.583831
0.790625,248.047944,-47.887371,9838.271537
0.790937,127.591181,-101.638994,9906.880783
0.791250,68.251396,111.112184,9735.881034
0.791562,-101.245274,-103.112976,9799.605629
0.791875,81.750395,56.826807,9882.586192
0.792188,-32.782799,38.115393,9912.012063
0.792500,-444.952653,-126.123709,9730.343052
0.792813,-358.079504,-57.117854,9836.259813
0.793125,-396.843879,97.676065,9701.946617
0.793438,-615.430151,29.633304,9918.933983
0.793750,-701.790992,-39.766832,9721.614439
0.794063,-690.628485,-45.038852,9863.763476
0.794375,-828.348689,-113.384006,9830.421813
0.794687,-1061.674037,-128.395938,9823.643777
0.795000,-957.877720,206.785819,9752.129306
0.795312,-1185.901945,88.857099,9858.637719
0.795625,-1087.206337,-30.787593,9624.394531
0.795937,-1401.323937,17.201759,9831.540352
0.796250,-1595.123759,-13.698983,9775.050671
0.796562,-1488.576237,-11.006428,9853.276238
0.796875,-1482.983221,-78.110207,9852.710649
0.797188,-1621.144147,95.616727,9633.799620
0.797500,-1730.444063,-64.865729,9766.979284
0.797813,-1895.662083,15.409580,9732.798754
0.798125,-1824.669853,-44.336478,9679.507043
0.798438,-2122.007718,-95.674120,9725.437598
0.798750,-1982.137514,-17.794043,9737.151086
0.799063,-2213.640715,2.903975,9761.085724
0.799375,-2233.066836,4.105109,9807.646528
0.799687,-2356.991155,-41.372858,9910.639313
0.800000,-2388.216017,91.729968,9555.423511
0.800312,-2256.283859,59.375516,9809.688646
0.800625,-2529.510996,-146.359667,9876.036452
0.800937,-2475.580856,-29.148283,9750.799822
0.801250,-2608.995580,18.809587,9926.540667
0.801562,-2512.521898,-121.295783,9903.502613
0.801875,-2752.903267,-49.074457,9564.218345
0.802188,-2688.370722,77.977244,9830.173369
0.802500,-2658.128980,77.225383,9781.496634
0.802813,-2588.072757,-18.877136,9682.017648
0.803125,-2902.629487,32.104425,9791.689096
0.803438,-2911.457623,100.007352,9778.007300
0.803750,-2875.391776,-107.763960,9733.834591
0.804063,-2779.235773,-82.058772,9683.774208
0.804375,-3005.696729,22.400007,9851.701644
0.804688,-2878.106567,51.886518,9850.850825
0.805000,-3013.202437,117.106127,9786.499851
0.805312,-3061.334318,-1.992065,9833.032532
0.805625,-3117.960542,-64.172855,9859.517388
0.805937,-2987.219692,51.410333,9764.703100
0.806250,-2923.905063,-8.625793,9782.206063
0.806562,-3013.848247,64.451543,9829.294215
0.806875,-3176.042333,27.306096,9932.649464
0.807187,-3045.561915,-78.848573,9901.846790
0.807500,-2914.330642,126.735354,9821.886136
0.807813,-2911.282929,-48.430659,9723.999840
0.808125,-2945.616611,181.667244,9822.123661
0.808438,-2831.134837,117.223119,9741.495701
0.808750,-3033.192174,75.578431,9728.093930
0.809063,-3006.829982,84.817795,9921.463563
0.809375,-2686.845530,-70.284356,9756.650926
0.809688,-2796.057061,33.375715,9624.607840
0.810000,-2833.994023,32.085260,9716.274371
0.810312,-2821.225718,19.597248,9883.368946
0.810625,-2951.747598,-99.275235,9921.364686
0.810937,-2632.804539,-83.400329,9859.436274
0.811250,-2823.872076,45.367313,9658.788248
0.811562,-2768.050492,-47.712130,9850.395092
0.811875,-2561.844412,67.874954,9930.686649
0.812187,-2382.070514,-25.716574,9802.871894
0.812500,-2480.553699,-97.039445,9802.279742
0.812813,-2359.258040,-11.901761,9893.810758
0.813125,-2363.660018,74.054972,9885.277394
0.813438,-2232.186628,80.232440,9956.806083
0.813750,-2333.524817,-126.129666,9811.560857
0.814063,-1958.212510,118.097920,9778.975069
0.814375,-2136.639337,-1.947850,9833.546790
0.814688,-1939.265405,-52.668060,9878.998289
0.815000,-2075.780887,18.557821,9812.668786
0.815312,-1687.142939,-83.764530,9730.396145
0.815625,-1716.584863,130.045439,9715.774738
0.815937,-1507.177380,-47.289148,9808.842046
0.816250,-1640.426760,115.390363,9714.893674
0.816562,-1417.115631,-15.520583,9671.712026
0.816875,-1429.090307,-169.394394,9862.962235
0.817187,-1329.914073,-33.062915,9606.017603
0.817500,-1130.474362,-63.221051,9675.173192
0.817813,-1218.695688,-158.862532,9826.310227
0.818125,-992.233142,18.278612,9811.171273
0.818438,-800.120907,56.716238,9835.691160
0.818750,-721.144023,-106.230054,9732.018179
0.819063,-681.248230,56.067353,9888.122744
0.819375,-644.294759,-33.654286,9810.165395
0.819688,-652.649012,90.806090,9782.521124
0.820000,-358.548898,60.251253,9720.731239
0.820312,-432.440497,-93.232327,9714.388892
0.820625,-179.773886,-22.401938,9992.721417
0.820937,-205.484540,-54.382383,9804.824347
0.821250,-77.964959,-50.276356,9880.800908
0.821562,20.586723,-52.756534,9759.170943
0.821875,169.959430,-65.722601,9832.254403
0.822187,184.210093,80.606526,9759.224063
0.822500,333.961428,119.736672,9661.276916
0.822812,375.807930,83.198172,9737.633128
0.823125,559.978439,23.499405,9864.690274
0.823438,637.928908,-105.981765,9813.060563
0.823750,747.034933,-6.021907,9824.739162
0.824063,739.733947,-10.307093,9757.581711
0.824375,930.800527,132.973467,9908.199738
0.824688,1002.440873,129.826393,9870.633692
0.825000,1140.108979,2.547310,9840.453022
0.825313,1189.121585,-68.343368,9790.434194
0.825625,1196.851490,16.527856,9773.869535
0.825937,1424.824535,-199.859305,9649.644434
0.826250,1399.067498,-0.621740,9709.352226
0.826562,1563.553297,-48.078275,9783.722184
0.826875,1456.524660,83.114519,9869.954450
0.827187,1749.291368,4.012794,9728.857523
0.827500,1843.446232,70.216864,9913.036328
0.827812,1793.904434,25.219126,9802.658683
0.828125,1993.484320,-59.135802,9765.461861
0.828438,1990.668437,-42.736379,9736.162044
0.828750,2206.187158,40.095374,9792.303208
0.829063,2218.277531,12.371410,9601.786787
0.829375,2130.786814,-34.727391,9679.713410
0.829688,2281.327863,10.305023,9760.827854
0.830000,2217.240711,79.815709,9806.783167
0.830313,2395.223291,45.392116,9731.764493
0.830625,2523.367886,112.765125,9757.968471
0.830937,2601.510134,36.152112,9769.137660
0.831250,2577.428483,-76.524072,9870.150620
0.831562,2615.979013,13.764793,9902.413530
0.831875,2694.897140,-31.571035,9724.213089
0.832187,2676.051549,-75.640148,9793.845708
0.832500,2791.964162,-9.108498,9733.138078
0.832812,2893.703336,85.634680,9794.317348
0.833125,2852.534704,-66.197809,9840.717655
0.833438,2937.690149,-103.764287,9583.467962
0.833750,2832.011073,-84.118871,9818.233002
0.834063,2879.950308,30.777064,9705.446171
0.834375,2968.603082,47.591483,9677.102403
0.834688,3123.370481,-43.253450,9829.008800
0.835000,3055.840459,46.368364,9795.030737
0.835313,3123.633415,-151.947501,9949.663186
0.835625,2996.742145,-52.329289,9886.629770
0.835938,3097.953508,-37.875942,9773.371950
0.836250,2861.402139,19.607987,9799.098742
0.836562,3038.261377,-6.915763,9837.603161
0.836875,2820.601800,181.100612,9702.265324
0.837187,3080.967966,-138.158185,9734.185563
0.837500,3007.579024,-227.569777,9826.458886
0.837812,3047.343192,52.728581,9829.183417
0.838125,2966.182556,79.801077,9964.610394
0.838437,2870.516104,66.245842,9760.829854
0.838750,2824.712946,-23.595166,9806.059931
0.839063,2871.294663,80.687073,9862.681066
0.839375,2944.936252,-5.160746,9814.906793
0.839688,2838.617611,-105.480722,9949.972854
0.840000,2704.941536,-166.422752,9789.463649
0.840313,2660.716354,42.232921,9768.984758
0.840625,2604.330539,41.323368,9815.726390
0.840938,2596.187554,-2.467752,9801.452547
0.841250,2554.816164,-49.238255,9851.770733
0.841562,2468.940995,-87.637543,9880.303002
0.841875,2451.700064,87.325866,9872.430586
0.842187,2263.425748,39.637625,9809.588126
0.842500,2455.309098,-135.038164,9677.426943
0.842812,2283.460676,136.821250,9764.175769
0.843125,2319.349683,-45.796286,9864.414557
0.843437,2148.810756,70.745062,9789.974040
0.843750,2036.707020,1.225901,9936.264011
0.844063,1984.424322,-63.465165,9824.866706
0.844375,1917.948872,29.626769,9828.699296
0.844688,1766.840000,49.645614,9846.997229
0.845000,1707.946025,4.918558,9732.086025
0.845313,1809.608001,-66.123269,9854.185683
0.845625,1645.225723,46.140717,9825.299221
0.845938,1439.770729,-64.722185,9838.253100
0.846250,1434.826767,27.386897,9732.652752
0.846562,1233.988467,-155.683024,9878.210996
0.846875,1322.854806,26.795098,9747.223704
0.847187,1033.863453,51.380883,9895.487166
0.847500,1092.774534,12.118044,9798.409067
0.847812,926.312199,-18.029048,9842.419257
0.848125,829.575478,93.082417,9788.808375
0.848437,662.762465,-10.477937,9829.190947
0.848750,608.193430,-73.845247,9746.451931
0.849063,467.413334,-12.345734,9826.765171
0.849375,358.628125,30.346289,9806.647357
0.849688,364.456047,-0.662922,9770.011118
0.850000,428.732292,-14.787775,9895.549182
0.850313,95.998760,-43.015854,9811.423196
0.850625,102.416047,-198.338036,9879.534617
0.850938,-81.538368,20.379522,9991.963995
0.851250,-240.236942,4.333976,9803.589096
0.851562,-176.035946,10.999671,9710.638569
0.851875,-334.618906,-72.926174,9840.704993
0.852187,-394.991012,-172.966243,9741.426941
0.852500,-578.308514,8.742082,9858.524783
0.852812,-675.745261,29.643548,9862.465783
0.853125,-852.669430,-41.392856,9824.721696
0.853437,-906.431549,64.235407,9817.831327
0.853750,-846.329780,-75.412677,9712.418386
0.854062,-1262.150131,-111.073355,9682.356042
0.854375,-1141.650159,-57.767232,9761.346445
