#time,accel_x,accel_y,accel_z
128.768311,267.996131,248.853550,9801.001370
128.768934,267.996131,248.853550,9801.001370
128.769557,267.996131,248.853550,9781.858789
128.770180,267.996131,229.710970,9743.573627
128.770803,191.425808,267.996131,9781.858789
128.771426,248.853550,248.853550,9762.716208
128.772049,325.423874,229.710970,9743.573627
128.772672,229.710970,210.568389,9801.001370
128.773295,287.138712,229.710970,9705.288466
128.773918,229.710970,248.853550,9762.716208
128.774541,248.853550,267.996131,9801.001370
128.775164,267.996131,248.853550,9801.001370
128.775787,267.996131,248.853550,9762.716208
128.776410,325.423874,191.425808,9743.573627
128.777033,325.423874,191.425808,9743.573627
128.777656,325.423874,191.425808,9781.858789
128.778279,248.853550,248.853550,9762.716208
128.778901,325.423874,172.283227,9781.858789
128.779524,248.853550,248.853550,9781.858789
128.780147,267.996131,153.140646,9762.716208
128.780770,153.140646,210.568389,9801.001370
128.781393,267.996131,267.996131,9762.716208
128.782016,267.996131,229.710970,9839.286531
128.782639,267.996131,210.568389,9801.001370
128.783262,210.568389,248.853550,9762.716208
128.783885,248.853550,248.853550,9801.001370
128.784508,248.853550,267.996131,9801.001370
128.785131,191.425808,210.568389,9762.716208
128.785754,267.996131,248.853550,9801.001370
128.786377,248.853550,210.568389,9762.716208
128.787000,210.568389,248.853550,9762.716208
128.787623,248.853550,210.568389,9762.716208
128.788246,248.853550,248.853550,9801.001370
128.788869,248.853550,248.853550,9705.288466
128.789491,325.423874,210.568389,9839.286531
128.790114,38.285162,267.996131,9877.571693
128.790737,-765.703232,325.423874,9934.999435
128.791360,-497.707101,191.425808,9973.284597
128.791983,-382.851616,535.992262,10011.569758
128.792606,38.285162,1722.832272,9801.001370
128.793229,153.140646,3369.094221,9475.577496
128.793852,-172.283227,5398.207786,9801.001370
128.794475,19.142581,6929.614250,9820.143950
128.795098,-382.851616,7810.172966,9839.286531
128.795721,-210.568389,7963.313613,9762.716208
128.796344,267.996131,7389.036189,9552.147819
128.796967,899.701298,6489.334891,9360.722011
128.797590,1205.982590,5283.352301,9399.007173
128.798213,1569.691626,3426.521963,9609.575562
128.798836,708.275490,1818.545176,9954.142016
128.799459,1033.699363,-880.558717,9954.142016
128.800081,1301.695494,-3158.525832,9724.431046
128.800704,784.845813,-4919.643266,9590.432981
128.801327,-344.566454,-6604.190376,9226.723946
128.801950,-95.712904,-8001.598774,9322.436850
128.802573,1339.980656,-9724.431046,9820.143950
128.803196,1148.554848,-10336.993632,10202.995566
128.803819,937.986459,-11332.407834,10126.425243
128.804442,-267.996131,-11944.970419,10049.854920
128.805065,-153.140646,-12155.538808,9399.007173
128.805688,76.570323,-12040.683323,9150.153622
128.806311,287.138712,-11121.839445,9839.286531
128.806934,478.564520,-9418.149754,10011.569758
128.807557,-210.568389,-7791.030386,10566.704602
128.808180,-689.132909,-6757.331022,10758.130410
128.808803,-976.271621,-6106.483275,10777.272990
128.809426,-248.853550,-5398.207786,10145.567824
128.810049,497.707101,-3369.094221,9896.714274
128.810671,995.414202,153.140646,9724.431046
128.811294,344.566454,5704.489078,9628.718142
128.811917,-382.851616,11140.982026,9839.286531
128.812540,-95.712904,15122.638832,10030.712339
128.813163,1339.980656,16788.043362,9705.288466
128.813786,1378.265818,17381.463366,9092.725880
128.814409,574.277424,17036.896912,8384.450390
128.815032,172.283227,16022.340130,7714.460062
128.815655,-727.418070,15486.347867,8250.452325
128.816278,-153.140646,14452.648504,9628.718142
128.816901,363.709035,13954.941403,10394.421374
128.817524,1225.125171,13591.232368,10068.997501
128.818147,669.990328,12366.107197,9934.999435
128.818770,76.570323,10336.993632,9533.005238
128.819393,229.710970,7121.040058,9169.296203
128.820016,-555.134843,4421.936165,9494.720077
128.820639,-1186.840010,1550.549045,10011.569758
128.821261,-1033.699363,-1435.693560,10490.134278
128.821884,-574.277424,-3924.229064,10911.271056
128.822507,401.994197,-6680.760699,11179.267187
128.823130,1665.404530,-9590.432981,10604.989763
128.823753,1320.838075,-12346.964616,9973.284597
128.824376,880.558717,-15046.068509,9877.571693
128.824999,535.992262,-17419.748528,9934.999435
128.825622,95.712904,-18798.014346,10872.985894
128.826245,-1091.127106,-18549.160795,11026.126541
128.826868,-440.279358,-17458.033690,10834.700733
128.827491,1244.267752,-16022.340130,10222.138147
128.828114,861.416136,-13208.380752,9647.860723
128.828737,401.994197,-10738.987829,8977.870395
128.829360,-363.709035,-8958.727814,8824.729749
128.829983,133.998066,-7389.036189,8690.731683
128.830606,803.988394,-5570.491013,8977.870395
128.831229,1301.695494,-3005.385186,9513.862658
128.831852,899.701298,38.285162,9609.575562
128.832474,133.998066,2201.396792,9456.434915
128.833097,229.710970,3962.514226,8882.157491
128.833720,306.281293,5302.494882,8748.159426
128.834343,344.566454,6814.758765,8805.587168
128.834966,287.138712,8537.591037,9245.866526
128.835589,287.138712,10758.130410,9437.292334
128.836212,-210.568389,13304.093656,9475.577496
128.836835,-669.990328,15543.775610,9781.858789
128.837458,191.425808,16941.184008,9743.573627
128.838081,1722.832272,16520.047230,9418.149754
128.838704,1531.406464,15830.914322,8958.727814
128.839327,669.990328,14452.648504,8690.731683
128.839950,-133.998066,11887.542677,9054.440718
128.840573,-1091.127106,9647.860723,10279.565890
128.841196,-344.566454,7006.184573,11351.550414
128.841819,229.710970,4594.219392,11906.685258
128.842442,689.132909,3311.666478,11638.689126
128.843064,229.710970,1818.545176,11121.839445
128.843687,-287.138712,229.710970,10796.415571
128.844310,-133.998066,-1684.547110,10566.704602
128.844933,-631.705166,-3062.812928,10700.702667
128.845556,-937.986459,-4077.369710,11026.126541
128.846179,-1052.841944,-5398.207786,11198.409768
128.846802,-421.136778,-6355.336826,10624.132344
128.847425,612.562586,-7121.040058,9858.429112
128.848048,1627.119368,-8365.307810,9092.725880
128.848671,1339.980656,-9131.011042,8288.737486
128.849294,746.560651,-10547.562021,8231.309744
128.849917,382.851616,-11925.827838,8767.302006
128.850540,229.710970,-12289.536874,9418.149754
128.851163,-823.130974,-11121.839445,9418.149754
128.851786,-287.138712,-9341.579430,9131.011042
128.852409,1186.840010,-8020.741355,8767.302006
128.853032,1244.267752,-6029.912952,8403.592971
128.853654,803.988394,-4441.078746,8154.739421
128.854277,-229.710970,-3407.379382,8537.591037
128.854900,248.853550,-2584.248408,8729.016845
128.855523,555.134843,-1588.834206,9284.151688
128.856146,1129.412267,-593.420005,9801.001370
128.856769,995.414202,363.709035,10030.712339
128.857392,478.564520,1454.836141,10068.997501
128.858015,421.136778,1971.685822,9781.858789
128.858638,95.712904,2373.680019,10011.569758
128.859261,57.427742,3024.527766,10260.423309
128.859884,57.427742,3617.947771,10643.274925
128.860507,267.996131,5034.498750,10911.271056
128.861130,38.285162,7408.178770,10815.558152
128.861753,-421.136778,9590.432981,10853.843314
128.862376,306.281293,11121.839445,10796.415571
128.862999,1493.121302,11045.269122,10317.851051
128.863623,899.701298,10758.130410,9820.143950
128.864246,287.138712,9858.429112,9418.149754
128.864869,-267.996131,8116.454259,9494.720077
128.865493,-1110.269686,7063.612315,10183.852986
128.866116,-401.994197,5647.061336,10987.841379
128.866739,-191.425808,4766.502619,11255.837510
128.867362,172.283227,4632.504554,10662.417506
128.867986,133.998066,4115.654872,9877.571693
128.868609,-172.283227,3483.949706,9322.436850
128.869232,-114.855485,2220.539373,8997.012976
128.869856,-478.564520,1416.550979,8901.300072
128.870479,-727.418070,421.136778,9226.723946
128.871102,-861.416136,-210.568389,9475.577496
128.871726,-248.853550,-957.129040,9188.438784
128.872349,842.273555,-1990.828403,8786.444587
128.872972,2048.256146,-3617.947771,8288.737486
128.873596,1952.543242,-5359.922624,7925.028451
128.874219,1186.840010,-7676.174901,8269.594906
128.874842,689.132909,-9724.431046,9169.296203
128.875465,593.420005,-11083.554283,10183.852986
128.876089,-497.707101,-11332.407834,10643.274925
128.876712,-95.712904,-10566.704602,10681.560086
128.877335,1071.984525,-10202.995566,10279.565890
128.877959,708.275490,-8805.587168,9877.571693
128.878582,516.849682,-7714.460062,9437.292334
128.879205,-172.283227,-7178.467800,9743.573627
128.879829,325.423874,-6508.477472,9839.286531
128.880452,401.994197,-5187.639397,10145.567824
128.881075,650.847747,-3943.371645,10451.849117
128.881698,516.849682,-2852.244539,10394.421374
128.882322,57.427742,-1627.119368,10279.565890
128.882945,133.998066,-957.129040,9858.429112
128.883568,-229.710970,-76.570323,9973.284597
128.884192,-210.568389,1148.554848,9973.284597
128.884815,-95.712904,2545.963246,10413.563955
128.885438,153.140646,4785.645200,10509.276859
128.886062,191.425808,8020.741355,10375.278794
128.886685,-229.710970,10853.843314,10298.708470
128.887308,344.566454,13112.667848,9915.856854
128.887932,1550.549045,13533.804626,9494.720077
128.888555,1110.269686,13552.947206,9111.868461
128.889178,765.703232,12921.242040,8556.733618
128.889801,325.423874,11523.833642,8575.876198
128.890425,-440.279358,10356.136213,9494.720077
128.891048,-76.570323,9092.725880,10241.280728
128.891671,-38.285162,7886.743290,10566.704602
128.892295,382.851616,7159.325219,10107.282662
128.892918,248.853550,6240.481341,9494.720077
128.893541,-114.855485,4977.071008,9131.011042
128.894165,-95.712904,3120.240670,9016.155557
128.894788,-516.849682,1684.547110,9169.296203
128.895411,-727.418070,-114.855485,9667.003304
128.896035,-995.414202,-1569.691626,10030.712339
128.896658,-574.277424,-2909.672282,9877.571693
128.897281,421.136778,-4383.651003,9705.288466
128.897904,1550.549045,-6393.621987,9360.722011
128.898528,1684.547110,-8633.303941,9092.725880
128.899151,1033.699363,-11026.126541,9322.436850
128.899774,612.562586,-12940.384621,10049.854920
128.900398,306.281293,-13801.800757,10930.413637
128.901021,-861.416136,-13572.089787,11255.837510
128.901644,-497.707101,-12461.820101,11006.983960
128.902268,861.416136,-11619.546546,10432.706536
128.902891,689.132909,-9647.860723,9781.858789
128.903514,574.277424,-7867.600709,9150.153622
128.904137,76.570323,-6699.903280,9169.296203
128.904761,708.275490,-5608.776174,9284.151688
128.905384,976.271621,-4173.082614,9628.718142
128.906007,995.414202,-2526.820666,10049.854920
128.906631,746.560651,-976.271621,10030.712339
128.907254,114.855485,555.134843,9686.145885
128.907877,248.853550,1320.838075,9265.009107
128.908501,95.712904,2182.254211,9379.864592
128.909124,153.140646,3407.379382,9475.577496
128.909747,76.570323,4804.787781,10183.852986
128.910371,191.425808,6929.614250,10279.565890
128.910994,57.427742,9667.003304,10164.710405
128.911617,-363.709035,12021.540742,9954.142016
128.912240,363.709035,13629.517530,9667.003304
128.912864,1627.119368,13533.804626,9245.866526
128.913487,1091.127106,13323.236237,8920.442653
128.914110,478.564520,12346.964616,8671.589102
128.914734,57.427742,10490.134278,8901.300072
128.915357,-669.990328,8997.012976,9781.858789
128.915980,-382.851616,7389.036189,10604.989763
128.916604,-114.855485,5895.914886,10872.985894
128.917227,287.138712,5187.639397,10509.276859
128.917850,0.000000,4115.654872,9973.284597
128.918474,-229.710970,2909.672282,9647.860723
128.919097,-191.425808,1148.554848,9513.862658
128.919720,-650.847747,-229.710970,9743.573627
128.920343,-746.560651,-1741.974853,10126.425243
128.920967,-918.843878,-2871.387120,10528.419440
128.921590,-459.421939,-3637.090352,10260.423309
128.922213,593.420005,-4460.221326,9801.001370
128.922837,1761.117434,-6029.912952,9456.434915
128.923460,1837.687757,-7695.317482,9111.868461
128.924083,1110.269686,-9801.001370,9265.009107
128.924707,765.703232,-11715.259450,9877.571693
128.925330,976.271621,-12442.677520,10509.276859
128.925953,555.134843,-12059.825904,10662.417506
128.926576,-57.427742,-10758.130410,10585.847182
128.927200,-382.851616,-9743.573627,10030.712339
128.927823,-1052.841944,-8231.309744,8997.012976
128.928446,-57.427742,-6910.471669,8154.739421
128.929070,918.843878,-5264.209720,8231.309744
128.929693,1952.543242,-3273.381317,8997.012976
128.930316,1378.265818,-1722.832272,10068.997501
128.930940,689.132909,-976.271621,10413.563955
128.931563,421.136778,-1493.121302,9896.714274
128.932186,229.710970,-1665.404530,9322.436850
128.932810,325.423874,-1033.699363,8843.872330
128.933433,-210.568389,689.132909,9207.581365
128.934056,-440.279358,2775.674216,9877.571693
128.934679,-555.134843,5015.356170,10834.700733
128.935303,-344.566454,7159.325219,11217.552349
128.935926,133.998066,8767.302006,10758.130410
128.936549,344.566454,9954.142016,9781.858789
128.937173,803.988394,10872.985894,9054.440718
128.937796,1339.980656,11026.126541,8920.442653
128.938419,497.707101,11581.261384,9360.722011
128.939043,133.998066,11657.831707,9781.858789
128.939666,306.281293,10738.987829,9992.427178
128.940289,-133.998066,9839.286531,10088.140082
128.940912,38.285162,8020.741355,10145.567824
128.941536,-229.710970,6144.768437,10317.851051
128.942159,-57.427742,4900.500685,10107.282662
128.942782,-153.140646,3732.803256,10088.140082
128.943406,-229.710970,3177.668413,10298.708470
128.944029,191.425808,2067.398726,10145.567824
128.944652,-344.566454,880.558717,10049.854920
128.945276,-612.562586,-497.707101,9954.142016
128.945899,-1033.699363,-1320.838075,9743.573627
128.946522,-708.275490,-2009.970984,9399.007173
128.947146,516.849682,-3043.670347,9207.581365
128.947769,2201.396792,-4938.785846,9131.011042
128.948392,2354.537438,-6967.899411,9188.438784
128.949015,1531.406464,-9437.292334,9360.722011
128.949639,746.560651,-11274.980091,9475.577496
128.950262,689.132909,-12232.109131,9762.716208
128.950885,421.136778,-12136.396227,10030.712339
128.951509,133.998066,-11121.839445,10202.995566
128.952132,-229.710970,-10145.567824,10068.997501
128.952755,-1225.125171,-8537.591037,9437.292334
128.953379,-689.132909,-7331.608446,8786.444587
128.954002,555.134843,-6489.334891,8882.157491
128.954625,1971.685822,-5206.781978,9399.007173
128.955249,1588.834206,-3675.375514,10107.282662
128.955872,574.277424,-2373.680019,10413.563955
128.956495,-57.427742,-1933.400661,10030.712339
128.957118,-248.853550,-1780.260014,9743.573627
128.957742,306.281293,-1263.410333,9513.862658
128.958365,-57.427742,248.853550,9762.716208
128.958988,-497.707101,2411.965181,10068.997501
128.959612,-899.701298,4670.789715,10719.845248
128.960235,-650.847747,6795.616184,11083.554283
128.960858,-38.285162,8920.442653,10700.702667
128.961482,689.132909,10413.563955,9896.714274
128.962105,1263.410333,11715.259450,9035.298138
128.962728,1550.549045,12366.107197,8824.729749
128.963351,535.992262,12825.529136,9150.153622
128.963975,153.140646,12768.101394,9513.862658
128.964598,478.564520,11676.974288,9686.145885
128.965221,133.998066,10604.989763,9801.001370
128.965845,287.138712,8920.442653,9973.284597
128.966468,-153.140646,7082.754896,10049.854920
128.967091,0.000000,5647.061336,9820.143950
128.967715,-38.285162,4211.367776,9915.856854
128.968338,-76.570323,3215.953574,10145.567824
128.968962,153.140646,1971.685822,10011.569758
128.969585,-363.709035,937.986459,9954.142016
128.970209,-555.134843,-401.994197,9915.856854
128.970832,-918.843878,-1512.263883,9801.001370
128.971456,-440.279358,-2584.248408,9437.292334
128.972079,421.136778,-3981.656806,9303.294269
128.972703,1780.260014,-6010.770371,9303.294269
128.973326,1627.119368,-8020.741355,9341.579430
128.973950,1052.841944,-10528.419440,9609.575562
128.974573,401.994197,-12174.681389,9858.429112
128.975196,593.420005,-12959.527202,10260.423309
128.975820,363.709035,-12710.673651,10279.565890
128.976443,95.712904,-11715.259450,10375.278794
128.977067,-95.712904,-10815.558152,10222.138147
128.977690,-1263.410333,-9303.294269,9590.432981
128.978314,-344.566454,-8154.739421,8997.012976
128.978937,784.845813,-6738.188442,9169.296203
128.979561,2029.113565,-4919.643266,9513.862658
128.980184,1531.406464,-3062.812928,9992.427178
128.980808,478.564520,-1761.117434,10183.852986
128.981431,57.427742,-1320.838075,9628.718142
128.982055,-114.855485,-1052.841944,9284.151688
128.982678,306.281293,-267.996131,9188.438784
128.983302,0.000000,1282.552914,9552.147819
128.983925,-382.851616,3369.094221,9973.284597
128.984549,-746.560651,5761.916821,10585.847182
128.985172,-325.423874,7963.313613,10872.985894
128.985796,95.712904,10011.569758,10336.993632
128.986419,669.990328,11313.265253,9513.862658
128.987042,1167.697429,12174.681389,8920.442653
128.987666,1416.550979,12423.534939,8939.585234
128.988289,535.992262,12595.818166,9399.007173
128.988913,248.853550,12327.822035,9762.716208
128.989536,497.707101,11140.982026,9781.858789
128.990160,-38.285162,10088.140082,9877.571693
128.990783,133.998066,8403.592971,9915.856854
128.991407,-210.568389,6585.047795,10126.425243
128.992030,0.000000,5149.354235,10145.567824
128.992654,114.855485,3694.518094,10375.278794
128.993277,-133.998066,2565.105827,10490.134278
128.993901,-95.712904,1225.125171,10356.136213
128.994524,-727.418070,-229.710970,10164.710405
128.995148,-995.414202,-1646.261949,9934.999435
128.995771,-1071.984525,-2373.680019,9686.145885
128.996395,-535.992262,-3120.240670,9322.436850
128.997018,612.562586,-4249.652938,9303.294269
128.997641,2105.683888,-6297.909083,9322.436850
128.998265,1818.545176,-8384.450390,9494.720077
128.998888,1320.838075,-10815.558152,9475.577496
128.999512,459.421939,-12270.394293,9533.005238
129.000135,344.566454,-12844.671717,9839.286531
129.000759,153.140646,-12251.251712,9858.429112
129.001382,-172.283227,-10892.128475,10202.995566
129.002006,-325.423874,-9628.718142,9992.427178
129.002629,-1320.838075,-7867.600709,9475.577496
129.003253,-95.712904,-7025.327154,8901.300072
129.003876,1033.699363,-5800.201982,8977.870395
129.004500,2105.683888,-4268.795518,9360.722011
129.005123,1761.117434,-2737.389054,9934.999435
129.005747,593.420005,-1493.121302,10126.425243
129.006370,382.851616,-1110.269686,9724.431046
129.006994,229.710970,-784.845813,9437.292334
129.007617,325.423874,0.000000,9399.007173
129.008241,-76.570323,1531.406464,9724.431046
129.008864,-535.992262,3426.521963,10088.140082
129.009487,-918.843878,5666.203917,10758.130410
129.010111,-382.851616,7465.606512,10930.413637
129.010734,-191.425808,9399.007173,10470.991698
129.011358,880.558717,10375.278794,9571.290400
129.011981,1301.695494,11447.263318,9111.868461
129.012605,1512.263883,12040.683323,9073.583299
129.013228,593.420005,12232.109131,9533.005238
129.013852,19.142581,12155.538808,9781.858789
129.014475,344.566454,10796.415571,9781.858789
129.015099,-172.283227,9513.862658,9801.001370
129.015722,-76.570323,7733.602643,9915.856854
129.016346,-363.709035,5991.627790,10107.282662
129.016969,-153.140646,4670.789715,10068.997501
129.017593,38.285162,3426.521963,10260.423309
129.018216,-172.283227,2411.965181,10394.421374
129.018840,-114.855485,1607.976787,10145.567824
129.019463,-478.564520,382.851616,9820.143950
129.020087,-708.275490,-765.703232,9667.003304
129.020710,-918.843878,-1512.263883,9552.147819
129.021333,-363.709035,-2545.963246,9360.722011
129.021957,765.703232,-3905.086483,9360.722011
129.022580,2277.967115,-6106.483275,9360.722011
129.023204,1722.832272,-8154.739421,9418.149754
129.023827,1263.410333,-10394.421374,9418.149754
129.024451,421.136778,-11772.687192,9571.290400
129.025074,344.566454,-12212.966550,9915.856854
129.025698,344.566454,-11849.257515,10088.140082
129.026321,0.000000,-10834.700733,10413.563955
129.026945,-229.710970,-9896.714274,10145.567824
129.027568,-1205.982590,-8499.305875,9552.147819
129.028192,-38.285162,-7791.030386,8920.442653
129.028815,1091.127106,-6546.762634,9111.868461
129.029439,2067.398726,-4766.502619,9533.005238
129.030062,1665.404530,-2928.814862,9877.571693
129.030686,287.138712,-1703.689691,10202.995566
129.031309,133.998066,-1320.838075,9801.001370
129.031933,-114.855485,-1186.840010,9399.007173
129.032556,-57.427742,-421.136778,9379.864592
129.033179,-306.281293,1167.697429,9705.288466
129.033803,-497.707101,3043.670347,10107.282662
129.034426,-689.132909,5532.205851,10700.702667
129.035050,-191.425808,7695.317482,10949.556218
129.035673,-191.425808,10107.282662,10470.991698
129.036297,823.130974,11198.409768,9609.575562
129.036920,1244.267752,11964.113000,9092.725880
129.037544,1263.410333,12366.107197,9150.153622
129.038167,574.277424,12461.820101,9399.007173
129.038791,172.283227,12155.538808,9705.288466
129.039414,478.564520,10911.271056,9781.858789
129.040038,-57.427742,9820.143950,9877.571693
129.040661,57.427742,8173.882002,9896.714274
129.041285,-19.142581,6565.905214,10183.852986
129.041908,38.285162,5359.922624,10068.997501
129.042532,153.140646,4077.369710,10145.567824
129.043155,-267.996131,2756.531635,10260.423309
129.043779,-459.421939,1780.260014,10107.282662
129.044402,-689.132909,19.142581,9858.429112
129.045025,-784.845813,-1550.549045,9762.716208
129.045649,-650.847747,-2450.250342,9475.577496
129.046272,-19.142581,-3311.666478,9341.579430
129.046896,995.414202,-4307.080680,9265.009107
129.047519,2239.681954,-6431.907149,9303.294269
129.048143,1435.693560,-8595.018779,9437.292334
129.048766,1167.697429,-10930.413637,9456.434915
129.049390,516.849682,-12576.675586,9686.145885
129.050013,229.710970,-12978.669782,10049.854920
129.050637,153.140646,-12538.390424,10164.710405
129.051260,-440.279358,-11370.692995,10394.421374
129.051884,-669.990328,-10030.712339,10068.997501
129.052507,-1320.838075,-8250.452325,9437.292334
129.053131,287.138712,-7408.178770,8977.870395
129.053754,1550.549045,-5857.629725,9284.151688
129.054378,1990.828403,-4058.227130,9724.431046
129.055001,1301.695494,-2450.250342,9954.142016
129.055625,38.285162,-1703.689691,10107.282662
129.056248,95.712904,-1359.123237,9628.718142
129.056871,172.283227,-1186.840010,9456.434915
129.057495,133.998066,133.998066,9494.720077
129.058118,-306.281293,2124.826469,9858.429112
129.058742,-593.420005,4192.225195,10317.851051
129.059365,-765.703232,6565.905214,10758.130410
129.059989,0.000000,8365.307810,10853.843314
129.060612,95.712904,10336.993632,10222.138147
129.061236,1186.840010,11198.409768,9360.722011
129.061859,1339.980656,11887.542677,8997.012976
129.062483,1052.841944,12366.107197,9131.011042
129.063106,555.134843,12423.534939,9379.864592
129.063730,153.140646,12212.966550,9590.432981
129.064353,306.281293,11121.839445,9571.290400
129.064977,-153.140646,9877.571693,9609.575562
129.065600,-172.283227,7944.171032,9743.573627
129.066224,19.142581,5991.627790,10011.569758
129.066848,-38.285162,4613.361973,10107.282662
129.067471,172.283227,3330.809059,10317.851051
129.068095,-153.140646,2105.683888,10317.851051
129.068718,-440.279358,1263.410333,10126.425243
129.069342,-516.849682,-306.281293,9915.856854
129.069965,-880.558717,-1454.836141,9762.716208
129.070589,-803.988394,-2105.683888,9475.577496
129.071212,-19.142581,-3311.666478,9399.007173
129.071836,1167.697429,-4785.645200,9437.292334
129.072459,2277.967115,-7312.465866,9552.147819
129.073083,1320.838075,-9609.575562,9686.145885
129.073706,899.701298,-11638.689126,9609.575562
129.074330,459.421939,-12729.816232,9667.003304
129.074953,287.138712,-12614.960747,9973.284597
129.075577,401.994197,-11810.972354,10279.565890
129.076201,-210.568389,-10796.415571,10432.706536
129.076824,-708.275490,-9475.577496,10011.569758
129.077448,-1205.982590,-8059.026517,9341.579430
129.078071,153.140646,-7312.465866,8882.157491
129.078695,1741.974853,-5915.057467,9073.583299
129.079318,1914.258080,-4115.654872,9628.718142
129.079942,1378.265818,-2239.681954,9839.286531
129.080565,172.283227,-1359.123237,9954.142016
129.081189,-191.425808,-593.420005,9609.575562
129.081812,248.853550,-612.562586,9303.294269
129.082436,191.425808,421.136778,9399.007173
129.083059,-172.283227,2316.252277,9743.573627
129.083683,-574.277424,4326.223261,10413.563955
129.084307,-765.703232,6795.616184,10662.417506
129.084930,-38.285162,8709.874264,10719.845248
129.085554,19.142581,10585.847182,10107.282662
129.086177,1205.982590,11466.405899,9284.151688
129.086801,1378.265818,11868.400096,8901.300072
129.087424,823.130974,12385.249778,9188.438784
129.088048,555.134843,12212.966550,9552.147819
129.088671,306.281293,11542.976222,9762.716208
129.089295,248.853550,10356.136213,9877.571693
129.089918,38.285162,8920.442653,9934.999435
129.090542,-133.998066,7140.182638,10107.282662
129.091165,95.712904,5627.918755,10336.993632
129.091789,-133.998066,4326.223261,10298.708470
129.092412,-38.285162,3426.521963,10490.134278
129.093036,-229.710970,2029.113565,10509.276859
129.093660,-669.990328,1263.410333,10241.280728
129.094283,-612.562586,-612.562586,9915.856854
129.094907,-1071.984525,-1856.830338,9686.145885
129.095530,-784.845813,-2718.246474,9360.722011
129.096154,172.283227,-3675.375514,9265.009107
129.096777,1397.408398,-5111.069074,9341.579430
129.097401,2335.394858,-7312.465866,9322.436850
129.098024,1435.693560,-9456.434915,9456.434915
129.098648,880.558717,-11542.976222,9513.862658
129.099271,784.845813,-12653.245909,9590.432981
129.099895,248.853550,-12519.247843,9781.858789
129.100518,76.570323,-11600.403965,10126.425243
129.101142,-363.709035,-10470.991698,10279.565890
129.101765,-1091.127106,-8920.442653,9877.571693
129.102389,-937.986459,-7618.747158,9265.009107
129.103013,306.281293,-6719.045861,8920.442653
129.103636,1914.258080,-5225.924558,9131.011042
129.104260,1895.115499,-3541.377448,9743.573627
129.104883,1301.695494,-2124.826469,9954.142016
129.105507,401.994197,-1607.976787,9896.714274
129.106130,19.142581,-1091.127106,9762.716208
129.106754,363.709035,-803.988394,9571.290400
129.107377,-76.570323,497.707101,9724.431046
129.108001,-459.421939,2450.250342,9934.999435
129.108624,-650.847747,4575.076811,10509.276859
129.109248,-574.277424,7063.612315,10834.700733
129.109871,114.855485,9092.725880,10585.847182
129.110495,229.710970,10700.702667,10030.712339
129.111119,1129.412267,11810.972354,9265.009107
129.111742,1473.978722,11925.827838,9035.298138
129.112366,593.420005,12251.251712,9322.436850
129.112989,382.851616,12078.968485,9513.862658
129.113613,344.566454,11160.124606,9647.860723
129.114236,19.142581,10279.565890,9647.860723
129.114860,248.853550,8748.159426,9743.573627
129.115483,-38.285162,7082.754896,9954.142016
129.116107,153.140646,5704.489078,10164.710405
129.116730,-38.285162,4287.938099,10336.993632
129.117354,-287.138712,3369.094221,10490.134278
129.117977,-248.853550,1971.685822,10336.993632
129.118601,-650.847747,899.701298,10049.854920
129.119224,-535.992262,-689.132909,9820.143950
129.119848,-880.558717,-1646.261949,9609.575562
129.120472,-765.703232,-2354.537438,9322.436850
129.121095,229.710970,-3503.092286,9360.722011
129.121719,1531.406464,-5398.207786,9399.007173
129.122342,2143.969050,-7810.172966,9456.434915
129.122966,1588.834206,-10279.565890,9437.292334
129.123589,995.414202,-12021.540742,9456.434915
129.124213,842.273555,-12691.531070,9705.288466
129.124836,191.425808,-12480.962682,10011.569758
129.125460,-210.568389,-11332.407834,10317.851051
129.126083,-516.849682,-10356.136213,10336.993632
129.126707,-1454.836141,-8863.014910,9877.571693
129.127330,-421.136778,-7810.172966,9073.583299
129.127954,765.703232,-6680.760699,8939.585234
129.128577,2048.256146,-5034.498750,9188.438784
129.129201,1607.976787,-3388.236802,9762.716208
129.129825,689.132909,-2048.256146,10049.854920
129.130448,344.566454,-1665.404530,9839.286531
129.131072,172.283227,-1320.838075,9590.432981
129.131695,440.279358,-650.847747,9456.434915
129.132319,-95.712904,899.701298,9628.718142
129.132942,-574.277424,3024.527766,9915.856854
129.133566,-899.701298,5398.207786,10547.562021
129.134189,-535.992262,7752.745224,10796.415571
129.134813,-95.712904,9839.286531,10528.419440
129.135436,344.566454,11236.694930,9839.286531
129.136060,937.986459,12002.398162,9207.581365
129.136683,1435.693560,12117.253646,9092.725880
129.137307,669.990328,12289.536874,9360.722011
129.137931,478.564520,12251.251712,9571.290400
129.138554,535.992262,11198.409768,9590.432981
129.139178,-95.712904,10260.423309,9724.431046
129.139801,133.998066,8575.876198,9839.286531
129.140425,-114.855485,6891.329088,10126.425243
129.141048,95.712904,5513.063270,10298.708470
129.141672,172.283227,3981.656806,10413.563955
129.142295,-172.283227,2986.242605,10451.849117
129.142919,-229.710970,1722.832272,10202.995566
129.143542,-899.701298,382.851616,9915.856854
129.144166,-1091.127106,-1014.556782,9801.001370
129.144789,-1033.699363,-2067.398726,9552.147819
129.145413,-421.136778,-2928.814862,9341.579430
129.146036,803.988394,-4019.941968,9341.579430
129.146660,2239.681954,-6317.051664,9322.436850
129.147284,1914.258080,-8422.735552,9475.577496
129.147907,1454.836141,-10911.271056,9399.007173
129.148531,516.849682,-12500.105262,9475.577496
129.149154,440.279358,-13112.667848,9896.714274
129.149778,172.283227,-12672.388490,10068.997501
129.150401,-344.566454,-11389.835576,10394.421374
129.151025,-650.847747,-9973.284597,10164.710405
129.151648,-1588.834206,-8135.596840,9686.145885
129.152272,-172.283227,-7350.751027,8939.585234
129.152895,1110.269686,-6259.623922,9035.298138
129.153519,2105.683888,-4689.932296,9399.007173
129.154142,1646.261949,-2986.242605,9858.429112
129.154766,459.421939,-1780.260014,10107.282662
129.155389,382.851616,-1244.267752,9781.858789
129.156013,191.425808,-1014.556782,9533.005238
129.156637,172.283227,-19.142581,9590.432981
129.157260,-153.140646,1627.119368,9801.001370
129.157884,-459.421939,3617.947771,10107.282662
129.158507,-823.130974,6144.768437,10585.847182
129.159131,-248.853550,8212.167163,10777.272990
129.159754,-133.998066,10451.849117,10451.849117
129.160378,746.560651,11332.407834,9686.145885
129.161001,1129.412267,12098.111066,9111.868461
129.161625,1263.410333,12366.107197,9054.440718
129.162248,631.705166,12251.251712,9265.009107
129.162872,248.853550,12059.825904,9533.005238
129.163495,459.421939,10777.272990,9590.432981
129.164118,-38.285162,9609.575562,9686.145885
129.164742,0.000000,7982.456194,9858.429112
129.165365,0.000000,6240.481341,10260.423309
129.165989,19.142581,5015.356170,10222.138147
129.166612,76.570323,3656.232933,10394.421374
129.167236,-287.138712,2431.107762,10470.991698
129.167859,-574.277424,1397.408398,10241.280728
129.168482,-727.418070,-248.853550,9915.856854
129.169106,-937.986459,-1512.263883,9820.143950
129.169729,-823.130974,-2488.535504,9609.575562
129.170353,-210.568389,-3349.951640,9456.434915
129.170976,937.986459,-4460.221326,9341.579430
129.171599,2335.394858,-6776.473603,9303.294269
129.172223,1722.832272,-8939.585234,9360.722011
129.172846,1454.836141,-11179.267187,9379.864592
129.173470,765.703232,-12672.388490,9475.577496
129.174093,382.851616,-12863.814298,9896.714274
129.174717,114.855485,-12059.825904,10126.425243
129.175340,-574.277424,-11026.126541,10413.563955
129.175963,-1014.556782,-9533.005238,10011.569758
129.176587,-1378.265818,-8001.598774,9399.007173
129.177210,114.855485,-7101.897477,8882.157491
129.177834,1512.263883,-5685.346498,9111.868461
129.178457,1933.400661,-4077.369710,9647.860723
129.179080,1531.406464,-2507.678085,9934.999435
129.179704,401.994197,-1875.972918,9992.427178
129.180327,76.570323,-1167.697429,9647.860723
129.180951,210.568389,-1014.556782,9322.436850
129.181574,19.142581,191.425808,9533.005238
129.182197,-325.423874,2143.969050,9934.999435
129.182821,-535.992262,4192.225195,10413.563955
129.183444,-631.705166,6642.475538,10719.845248
129.184068,-95.712904,8575.876198,10700.702667
129.184691,-153.140646,10566.704602,10222.138147
129.185315,1014.556782,11428.120738,9494.720077
129.185938,1282.552914,12002.398162,9150.153622
129.186561,1014.556782,12308.679454,9322.436850
129.187185,650.847747,12232.109131,9494.720077
129.187808,344.566454,11676.974288,9647.860723
129.188432,306.281293,10547.562021,9609.575562
129.189055,153.140646,9188.438784,9781.858789
129.189678,-57.427742,7523.034254,9973.284597
129.190302,114.855485,5972.485210,10260.423309
129.190925,-114.855485,4689.932296,10356.136213
129.191549,0.000000,3598.805190,10528.419440
129.192172,-191.425808,2182.254211,10317.851051
129.192795,-650.847747,1339.980656,10030.712339
129.193419,-650.847747,-325.423874,9743.573627
129.194042,-1129.412267,-1454.836141,9628.718142
129.194666,-995.414202,-2335.394858,9379.864592
129.195289,-19.142581,-3464.807125,9418.149754
129.195913,1263.410333,-5245.067139,9360.722011
129.196536,2526.820666,-7657.032320,9322.436850
129.197159,1703.689691,-9954.142016,9341.579430
129.197783,1167.697429,-11906.685258,9303.294269
129.198406,689.132909,-12921.242040,9647.860723
129.199030,57.427742,-12806.386555,10068.997501
129.199653,57.427742,-11830.114934,10356.136213
129.200276,-421.136778,-10700.702667,10470.991698
129.200900,-1205.982590,-9245.866526,9973.284597
129.201523,-1110.269686,-7752.745224,9188.438784
129.202147,229.710970,-6910.471669,8882.157491
129.202770,1837.687757,-5589.633594,9054.440718
129.203394,1780.260014,-3847.658741,9762.716208
129.204017,1320.838075,-2182.254211,9973.284597
129.204640,325.423874,-1588.834206,9896.714274
129.205264,-38.285162,-1052.841944,9705.288466
129.205887,555.134843,-727.418070,9456.434915
129.206511,306.281293,784.845813,9628.718142
129.207134,-229.710970,2947.957443,9858.429112
129.207757,-650.847747,5034.498750,10470.991698
129.208381,-727.418070,7389.036189,10700.702667
129.209004,-114.855485,9379.864592,10585.847182
129.209628,-76.570323,10930.413637,10088.140082
129.210251,995.414202,11906.685258,9456.434915
129.210874,1627.119368,12040.683323,9092.725880
129.211498,880.558717,12480.962682,9207.581365
129.212121,535.992262,12442.677520,9379.864592
129.212745,306.281293,11408.978157,9513.862658
129.213368,38.285162,10317.851051,9705.288466
129.213992,401.994197,8652.446522,9801.001370
129.214615,-19.142581,7082.754896,10164.710405
129.215238,38.285162,5800.201982,10260.423309
129.215862,-172.283227,4307.080680,10413.563955
129.216485,-306.281293,3235.096155,10528.419440
129.217109,-153.140646,1837.687757,10241.280728
129.217732,-631.705166,803.988394,9839.286531
129.218355,-823.130974,-478.564520,9801.001370
129.218979,-1091.127106,-1550.549045,9686.145885
129.219602,-669.990328,-2622.533570,9456.434915
129.220226,325.423874,-4019.941968,9399.007173
129.220849,1971.685822,-6163.911018,9322.436850
129.221473,2392.822600,-8518.448456,9265.009107
129.222096,1722.832272,-10892.128475,9265.009107
129.222719,861.416136,-12500.105262,9341.579430
129.223343,612.562586,-13055.240106,9705.288466
129.223966,76.570323,-12557.533005,10183.852986
129.224590,-95.712904,-11351.550414,10585.847182
129.225213,-363.709035,-10241.280728,10432.706536
129.225836,-1473.978722,-8614.161360,9762.716208
129.226460,-574.277424,-7676.174901,8863.014910
129.227083,459.421939,-6604.190376,8882.157491
129.227707,1875.972918,-5015.356170,9303.294269
129.228330,1837.687757,-3311.666478,9801.001370
129.228953,937.986459,-1856.830338,10088.140082
129.229577,535.992262,-1282.552914,9820.143950
129.230200,210.568389,-842.273555,9552.147819
129.230824,287.138712,19.142581,9456.434915
129.231447,-210.568389,1627.119368,9686.145885
129.232071,-574.277424,3503.092286,9896.714274
129.232694,-957.129040,5819.344563,10566.704602
129.233317,-497.707101,7791.030386,10834.700733
129.233941,-229.710970,9896.714274,10470.991698
129.234564,497.707101,11160.124606,9858.429112
129.235188,1186.840010,12040.683323,9265.009107
129.235811,1607.976787,12404.392358,9150.153622
129.236434,823.130974,12595.818166,9265.009107
129.237058,325.423874,12442.677520,9399.007173
129.237681,478.564520,11045.269122,9609.575562
129.238305,38.285162,9743.573627,9743.573627
129.238928,229.710970,7944.171032,9973.284597
129.239551,133.998066,6317.051664,10298.708470
129.240175,0.000000,5187.639397,10279.565890
129.240798,133.998066,3924.229064,10451.849117
129.241422,-210.568389,2794.816797,10470.991698
129.242045,-382.851616,1952.543242,10202.995566
129.242669,-861.416136,421.136778,9820.143950
129.243292,-1148.554848,-1014.556782,9705.288466
129.243915,-1071.984525,-2258.824534,9552.147819
129.244539,-306.281293,-3426.521963,9494.720077
129.245162,937.986459,-4804.787781,9341.579430
129.245786,2392.822600,-6987.041992,9207.581365
129.246409,1875.972918,-9073.583299,9245.866526
129.247032,1531.406464,-11351.550414,9226.723946
129.247656,746.560651,-12691.531070,9399.007173
129.248279,344.566454,-12959.527202,9858.429112
129.248903,210.568389,-12366.107197,10241.280728
129.249526,-440.279358,-11217.552349,10681.560086
129.250150,-899.701298,-9877.571693,10298.708470
129.250773,-1569.691626,-8288.737486,9533.005238
129.251396,-248.853550,-7465.606512,8882.157491
129.252020,1339.980656,-6087.340694,8958.727814
129.252643,2067.398726,-4383.651003,9494.720077
129.253267,1761.117434,-2565.105827,9877.571693
129.253890,516.849682,-1607.976787,10030.712339
129.254513,287.138712,-861.416136,9781.858789
129.255137,382.851616,-899.701298,9494.720077
129.255760,210.568389,172.283227,9533.005238
129.256384,-267.996131,1990.828403,9686.145885
129.257007,-631.705166,4000.799387,10107.282662
129.257630,-1014.556782,6565.905214,10509.276859
129.258254,-421.136778,8575.876198,10796.415571
129.258877,-306.281293,10834.700733,10432.706536
129.259501,1014.556782,11676.974288,9724.431046
129.260124,1550.549045,12270.394293,9303.294269
129.260748,1301.695494,12442.677520,9226.723946
129.261371,689.132909,12251.251712,9169.296203
129.261994,287.138712,11657.831707,9360.722011
129.262618,344.566454,10413.563955,9571.290400
129.263241,153.140646,9169.296203,9839.286531
129.263864,-76.570323,7618.747158,10126.425243
129.264488,38.285162,6202.196179,10432.706536
129.265111,-191.425808,4823.930362,10451.849117
129.265734,19.142581,3675.375514,10451.849117
129.266358,-267.996131,2220.539373,10164.710405
129.266981,-727.418070,1359.123237,10011.569758
129.267605,-727.418070,-440.279358,9801.001370
129.268228,-1091.127106,-1550.549045,9743.573627
129.268851,-765.703232,-2507.678085,9647.860723
129.269475,248.853550,-3656.232933,9513.862658
129.270098,1473.978722,-5168.496816,9284.151688
129.270721,2488.535504,-7695.317482,9092.725880
129.271345,1493.121302,-9934.999435,9111.868461
129.271968,1091.127106,-11983.255581,9226.723946
129.272591,727.418070,-13170.095590,9647.860723
129.273215,248.853550,-13093.525267,10088.140082
129.273838,38.285162,-12040.683323,10566.704602
129.274461,-535.992262,-11045.269122,10662.417506
129.275085,-1435.693560,-9303.294269,9992.427178
129.275708,-1091.127106,-7925.028451,9150.153622
129.276332,191.425808,-6987.041992,8824.729749
129.276955,1933.400661,-5474.778109,9035.298138
129.277578,1895.115499,-3713.660675,9667.003304
129.278202,1167.697429,-2067.398726,10011.569758
129.278825,459.421939,-1588.834206,9915.856854
129.279448,210.568389,-1167.697429,9590.432981
129.280072,574.277424,-765.703232,9418.149754
129.280695,95.712904,899.701298,9513.862658
129.281318,-421.136778,3081.955509,9801.001370
129.281942,-918.843878,5187.639397,10394.421374
129.282565,-918.843878,7503.891674,10758.130410
129.283188,-133.998066,9341.579430,10662.417506
129.283812,172.283227,10853.843314,10222.138147
129.284435,1091.127106,11964.113000,9437.292334
129.285059,1646.261949,12251.251712,9054.440718
129.285682,727.418070,12576.675586,9265.009107
129.286305,382.851616,12461.820101,9322.436850
129.286929,382.851616,11313.265253,9418.149754
129.287552,95.712904,10241.280728,9667.003304
129.288175,363.709035,8556.733618,9781.858789
129.288799,-19.142581,7006.184573,10202.995566
129.289422,-38.285162,5819.344563,10394.421374
129.290045,-153.140646,4307.080680,10547.562021
129.290669,-363.709035,3292.523898,10604.989763
129.291292,-133.998066,1914.258080,10241.280728
129.291915,-727.418070,765.703232,9896.714274
129.292539,-823.130974,-669.990328,9724.431046
129.293162,-899.701298,-1837.687757,9590.432981
129.293785,-631.705166,-2756.531635,9513.862658
129.294409,382.851616,-4096.512291,9456.434915
129.295032,1856.830338,-6297.909083,9322.436850
129.295656,2201.396792,-8709.874264,9226.723946
129.296279,1741.974853,-11274.980091,9188.438784
129.296902,842.273555,-12748.958813,9245.866526
129.297526,689.132909,-13074.382686,9839.286531
129.298149,114.855485,-12519.247843,10241.280728
129.298772,-344.566454,-11236.694930,10719.845248
129.299396,-708.275490,-10241.280728,10566.704602
129.300019,-1569.691626,-8633.303941,9801.001370
129.300642,-421.136778,-7752.745224,8843.872330
129.301266,765.703232,-6642.475538,8863.014910
129.301889,1914.258080,-4938.785846,9207.581365
129.302512,1856.830338,-3139.383251,9705.288466
129.303136,727.418070,-1761.117434,10011.569758
129.303759,574.277424,-1148.554848,9762.716208
129.304383,363.709035,-746.560651,9475.577496
129.305006,267.996131,172.283227,9552.147819
129.305629,-95.712904,1684.547110,9647.860723
129.306253,-612.562586,3560.520029,9954.142016
129.306876,-976.271621,5934.200048,10566.704602
129.307499,-497.707101,8039.883936,10777.272990
129.308123,-287.138712,10375.278794,10547.562021
129.308746,593.420005,11581.261384,9954.142016
129.309369,1071.984525,12423.534939,9379.864592
129.309993,1473.978722,12557.533005,9111.868461
129.310616,861.416136,12442.677520,9150.153622
129.311239,382.851616,12174.681389,9322.436850
129.311863,516.849682,10700.702667,9399.007173
129.312486,153.140646,9552.147819,9705.288466
129.313110,133.998066,7925.028451,10030.712339
129.313733,19.142581,6451.049730,10356.136213
129.314356,-267.996131,5417.350366,10413.563955
129.314980,-57.427742,4173.082614,10470.991698
129.315603,-287.138712,2660.818731,10356.136213
129.316226,-535.992262,1607.976787,10088.140082
129.316850,-631.705166,-76.570323,9820.143950
129.317473,-995.414202,-1359.123237,9724.431046
129.318096,-899.701298,-2239.681954,9628.718142
129.318720,-153.140646,-3426.521963,9475.577496
129.319343,957.129040,-4900.500685,9322.436850
129.319966,2354.537438,-7274.180704,9188.438784
129.320590,1646.261949,-9533.005238,9188.438784
129.321213,1301.695494,-11791.829773,9169.296203
129.321837,689.132909,-13093.525267,9360.722011
129.322460,306.281293,-13170.095590,10049.854920
129.323083,287.138712,-12327.822035,10394.421374
129.323707,-421.136778,-11083.554283,10662.417506
129.324330,-1052.841944,-9628.718142,10202.995566
129.324953,-1435.693560,-7982.456194,9303.294269
129.325577,-57.427742,-7197.610381,8748.159426
129.326200,1607.976787,-5876.772306,8863.014910
129.326823,1875.972918,-4077.369710,9494.720077
129.327447,1493.121302,-2335.394858,9858.429112
129.328070,497.707101,-1722.832272,9915.856854
129.328693,267.996131,-957.129040,9801.001370
129.329317,593.420005,-842.273555,9533.005238
129.329940,95.712904,669.990328,9647.860723
129.330564,-478.564520,2622.533570,9762.716208
129.331187,-689.132909,4613.361973,10317.851051
129.331810,-631.705166,6967.899411,10719.845248
129.332434,-76.570323,9092.725880,10872.985894
129.333057,-172.283227,11045.269122,10298.708470
129.333680,880.558717,12002.398162,9590.432981
129.334304,1359.123237,12346.964616,9245.866526
129.334927,995.414202,12576.675586,9226.723946
129.335550,765.703232,12538.390424,9131.011042
129.336174,363.709035,11676.974288,9303.294269
129.336797,95.712904,10490.134278,9475.577496
129.337420,306.281293,8920.442653,9762.716208
129.338044,-76.570323,7274.180704,10202.995566
129.338667,114.855485,5991.627790,10451.849117
129.339291,-57.427742,4479.363907,10432.706536
129.339914,-95.712904,3617.947771,10566.704602
129.340537,-76.570323,2105.683888,10222.138147
129.341161,-631.705166,1052.841944,9896.714274
129.341784,-727.418070,-555.134843,9801.001370
129.342407,-995.414202,-1761.117434,9686.145885
129.343031,-803.988394,-2718.246474,9513.862658
129.343654,172.283227,-3885.943902,9456.434915
129.344277,1684.547110,-5915.057467,9207.581365
129.344901,2354.537438,-8365.307810,9188.438784
129.345524,1741.974853,-10662.417506,9169.296203
129.346147,1033.699363,-12404.392358,9245.866526
129.346771,727.418070,-13170.095590,9647.860723
129.347394,153.140646,-12882.956878,10126.425243
129.348018,-133.998066,-11734.402030,10643.274925
129.348641,-631.705166,-10624.132344,10604.989763
129.349264,-1607.976787,-8863.014910,9954.142016
129.349888,-631.705166,-7848.458128,8939.585234
129.350511,478.564520,-6853.043926,8843.872330
129.351134,1895.115499,-5206.781978,9131.011042
129.351758,1837.687757,-3522.234867,9705.288466
129.352381,918.843878,-1895.115499,10049.854920
129.353004,689.132909,-1359.123237,9915.856854
129.353628,363.709035,-899.701298,9647.860723
129.354251,516.849682,-114.855485,9552.147819
129.354874,0.000000,1493.121302,9667.003304
129.355498,-382.851616,3407.379382,9820.143950
129.356121,-803.988394,5647.061336,10509.276859
129.356745,-516.849682,7771.887805,10758.130410
129.357368,-287.138712,10011.569758,10470.991698
129.357991,210.568389,11313.265253,10049.854920
129.358615,995.414202,12308.679454,9399.007173
129.359238,1607.976787,12634.103328,9207.581365
129.359861,976.271621,12806.386555,9207.581365
129.360485,440.279358,12519.247843,9245.866526
129.361108,382.851616,11045.269122,9341.579430
129.361731,-19.142581,9705.288466,9647.860723
129.362355,325.423874,7982.456194,9877.571693
129.362978,95.712904,6546.762634,10356.136213
129.363601,-229.710970,5723.631659,10528.419440
129.364224,-133.998066,4287.938099,10624.132344
129.364848,-497.707101,2909.672282,10470.991698
129.365471,-497.707101,1780.260014,10088.140082
129.366094,-803.988394,210.568389,9590.432981
129.366717,-976.271621,-1301.695494,9609.575562
129.367341,-976.271621,-2220.539373,9647.860723
129.367964,-401.994197,-3330.809059,9590.432981
129.368587,842.273555,-4613.361973,9590.432981
129.369210,2526.820666,-7063.612315,9341.579430
129.369834,2124.826469,-9360.722011,9150.153622
129.370457,1703.689691,-11696.116869,8939.585234
129.371080,708.275490,-13074.382686,9188.438784
129.371703,229.710970,-13189.238171,9877.571693
129.372327,114.855485,-12557.533005,10375.278794
129.372950,-363.709035,-11294.122672,10892.128475
129.373573,-823.130974,-9781.858789,10451.849117
129.374196,-1454.836141,-8173.882002,9494.720077
129.374820,-229.710970,-7465.606512,8652.446522
129.375443,1397.408398,-6240.481341,8767.302006
129.376066,2009.970984,-4670.789715,9379.864592
129.376689,1780.260014,-2679.961312,9877.571693
129.377313,555.134843,-1722.832272,10068.997501
129.377936,306.281293,-861.416136,9896.714274
129.378559,459.421939,-708.275490,9513.862658
129.379182,210.568389,478.564520,9571.290400
129.379806,-325.423874,2431.107762,9628.718142
129.380429,-689.132909,4402.793584,10068.997501
129.381052,-861.416136,6891.329088,10413.563955
129.381675,-325.423874,8882.157491,10834.700733
129.382299,-344.566454,10949.556218,10604.989763
129.382922,918.843878,12021.540742,9839.286531
129.383545,1531.406464,12385.249778,9322.436850
129.384168,1205.982590,12653.245909,9188.438784
129.384792,727.418070,12442.677520,9073.583299
129.385415,287.138712,11715.259450,9207.581365
129.386038,153.140646,10547.562021,9513.862658
129.386661,325.423874,9188.438784,9743.573627
129.387285,172.283227,7580.461997,10298.708470
129.387908,172.283227,6412.764568,10566.704602
129.388531,-229.710970,4785.645200,10566.704602
129.389154,-267.996131,3579.662610,10547.562021
129.389778,-229.710970,1952.543242,10107.282662
129.390401,-784.845813,1110.269686,9839.286531
129.391024,-727.418070,-535.992262,9781.858789
129.391647,-976.271621,-1607.976787,9781.858789
129.392271,-823.130974,-2545.963246,9743.573627
129.392894,229.710970,-3828.516160,9552.147819
129.393517,1493.121302,-5685.346498,9303.294269
129.394141,2431.107762,-8269.594906,9035.298138
129.394764,1665.404530,-10624.132344,8920.442653
129.395387,937.986459,-12461.820101,9111.868461
129.396010,555.134843,-13304.093656,9628.718142
129.396634,57.427742,-13131.810429,10222.138147
129.397257,-19.142581,-11887.542677,10700.702667
129.397880,-497.707101,-10758.130410,10700.702667
129.398503,-1493.121302,-8939.585234,9954.142016
129.399127,-746.560651,-7886.743290,8901.300072
129.399750,344.566454,-6929.614250,8786.444587
129.400373,1799.402595,-5302.494882,9016.155557
129.400996,1856.830338,-3713.660675,9743.573627
129.401620,1052.841944,-1990.828403,10030.712339
129.402243,803.988394,-1454.836141,9896.714274
129.402866,382.851616,-842.273555,9590.432981
129.403489,401.994197,-114.855485,9437.292334
129.404113,-229.710970,1588.834206,9533.005238
129.404736,-574.277424,3464.807125,9762.716208
129.405359,-861.416136,5608.776174,10432.706536
129.405982,-516.849682,7771.887805,10815.558152
129.406606,-57.427742,9954.142016,10662.417506
129.407229,287.138712,11447.263318,10164.710405
129.407852,957.129040,12557.533005,9475.577496
129.408475,1531.406464,12691.531070,9226.723946
129.409099,803.988394,12691.531070,9150.153622
129.409722,421.136778,12385.249778,9226.723946
129.410345,382.851616,10911.271056,9303.294269
129.410968,-38.285162,9686.145885,9628.718142
129.411592,287.138712,8116.454259,9896.714274
129.412215,114.855485,6776.473603,10317.851051
129.412838,-133.998066,5915.057467,10490.134278
129.413461,-19.142581,4421.936165,10624.132344
129.414085,-382.851616,2967.100024,10509.276859
129.414708,-325.423874,1684.547110,10107.282662
129.415331,-650.847747,19.142581,9686.145885
129.415954,-899.701298,-1454.836141,9686.145885
129.416578,-976.271621,-2163.111630,9647.860723
129.417201,-478.564520,-3139.383251,9609.575562
129.417824,593.420005,-4307.080680,9552.147819
129.418447,2220.539373,-6795.616184,9379.864592
129.419071,1990.828403,-9360.722011,9150.153622
129.419694,1722.832272,-11983.255581,8958.727814
129.420317,899.701298,-13265.808494,9035.298138
129.420940,344.566454,-13342.378818,9801.001370
129.421564,57.427742,-12576.675586,10451.849117
129.422187,-535.992262,-11160.124606,10987.841379
129.422810,-861.416136,-9724.431046,10604.989763
129.423434,-1473.978722,-8135.596840,9647.860723
129.424057,-306.281293,-7331.608446,8729.016845
129.424680,1282.552914,-6202.196179,8595.018779
129.425303,1933.400661,-4709.074877,9207.581365
129.425927,1684.547110,-2890.529701,9781.858789
129.426550,631.705166,-1895.115499,10145.567824
129.427173,344.566454,-880.558717,9992.427178
129.427796,478.564520,-555.134843,9628.718142
129.428420,267.996131,650.847747,9533.005238
129.429043,-229.710970,2469.392923,9571.290400
129.429666,-478.564520,4402.793584,9973.284597
129.430289,-708.275490,6795.616184,10394.421374
129.430913,-153.140646,8767.302006,10872.985894
129.431536,-344.566454,11026.126541,10681.560086
129.432159,765.703232,12078.968485,9934.999435
129.432782,1359.123237,12480.962682,9437.292334
129.433406,1244.267752,12729.816232,9303.294269
129.434029,880.558717,12595.818166,8977.870395
129.434652,306.281293,12040.683323,9092.725880
129.435275,153.140646,10681.560086,9379.864592
129.435899,421.136778,9054.440718,9820.143950
129.436522,172.283227,7427.321350,10279.565890
129.437145,172.283227,6317.051664,10624.132344
129.437768,-153.140646,4919.643266,10566.704602
129.438392,-191.425808,3713.660675,10585.847182
129.439015,-210.568389,2143.969050,10183.852986
129.439638,-727.418070,1033.699363,9839.286531
129.440261,-784.845813,-593.420005,9686.145885
129.440885,-937.986459,-1703.689691,9686.145885
129.441508,-880.558717,-2584.248408,9686.145885
129.442131,57.427742,-3771.088418,9647.860723
129.442754,1493.121302,-5723.631659,9437.292334
129.443378,2469.392923,-8422.735552,9188.438784
129.444001,1722.832272,-10777.272990,8901.300072
129.444624,1052.841944,-12614.960747,8939.585234
129.445247,746.560651,-13495.519464,9475.577496
129.445871,153.140646,-13170.095590,10126.425243
129.446494,19.142581,-11830.114934,10777.272990
129.447117,-555.134843,-10643.274925,10853.843314
129.447740,-1703.689691,-8709.874264,10049.854920
129.448364,-784.845813,-7771.887805,8920.442653
129.448987,459.421939,-7121.040058,8729.016845
129.449610,1914.258080,-5532.205851,8901.300072
129.450233,1895.115499,-3866.801322,9571.290400
129.450857,823.130974,-2009.970984,10145.567824
129.451480,631.705166,-1397.408398,10068.997501
129.452103,306.281293,-823.130974,9820.143950
129.452726,631.705166,38.285162,9513.862658
129.453350,57.427742,1646.261949,9533.005238
129.453973,-478.564520,3598.805190,9647.860723
129.454596,-803.988394,5666.203917,10260.423309
129.455220,-478.564520,7829.315547,10738.987829
129.455843,-153.140646,10030.712339,10700.702667
129.456466,229.710970,11428.120738,10241.280728
129.457089,861.416136,12442.677520,9571.290400
129.457713,1493.121302,12710.673651,9131.011042
129.458336,842.273555,12748.958813,9092.725880
129.458959,440.279358,12614.960747,9111.868461
129.459582,344.566454,11121.839445,9245.866526
129.460206,133.998066,9896.714274,9513.862658
129.460829,440.279358,8039.883936,9934.999435
129.461452,210.568389,6604.190376,10528.419440
129.462075,-133.998066,5685.346498,10604.989763
129.462699,-114.855485,4192.225195,10547.562021
129.463322,-516.849682,2871.387120,10356.136213
129.463945,-631.705166,1799.402595,9954.142016
129.464568,-727.418070,172.283227,9628.718142
129.465192,-976.271621,-1244.267752,9724.431046
129.465815,-880.558717,-2258.824534,9781.858789
129.466438,-421.136778,-3426.521963,9667.003304
129.467061,631.705166,-4823.930362,9590.432981
129.467685,2354.537438,-7312.465866,9245.866526
129.468308,2048.256146,-9743.573627,8997.012976
129.468931,1684.547110,-11925.827838,8729.016845
129.469555,765.703232,-13189.238171,9016.155557
129.470178,133.998066,-13150.953010,9820.143950
129.470801,57.427742,-12480.962682,10528.419440
129.471424,-440.279358,-11332.407834,11064.411702
129.472048,-937.986459,-9915.856854,10413.563955
129.472671,-1339.980656,-8365.307810,9418.149754
129.473294,-191.425808,-7389.036189,8729.016845
129.473917,1301.695494,-6125.625856,8729.016845
129.474541,1818.545176,-4536.791650,9341.579430
129.475164,1607.976787,-2603.390989,9896.714274
129.475787,631.705166,-1761.117434,10145.567824
129.476411,248.853550,-803.988394,9954.142016
129.477034,631.705166,-593.420005,9609.575562
129.477657,267.996131,708.275490,9571.290400
129.478280,-210.568389,2603.390989,9494.720077
129.478904,-650.847747,4689.932296,9954.142016
129.479527,-823.130974,7178.467800,10470.991698
129.480150,-248.853550,9131.011042,10777.272990
129.480774,-344.566454,11217.552349,10528.419440
129.481397,765.703232,12308.679454,9915.856854
129.482020,1435.693560,12691.531070,9437.292334
129.482643,1148.554848,12863.814298,9303.294269
129.483267,842.273555,12595.818166,8997.012976
129.483890,344.566454,11676.974288,9150.153622
129.484513,95.712904,10470.991698,9322.436850
129.485136,382.851616,8767.302006,9820.143950
129.485760,172.283227,7331.608446,10317.851051
129.486383,76.570323,6317.051664,10643.274925
129.487006,-229.710970,4881.358104,10624.132344
129.487630,-401.994197,3694.518094,10547.562021
129.488253,-306.281293,1990.828403,10107.282662
129.488876,-880.558717,803.988394,9705.288466
129.489499,-746.560651,-784.845813,9781.858789
129.490123,-842.273555,-1990.828403,9743.573627
129.490746,-803.988394,-2852.244539,9781.858789
129.491369,210.568389,-4096.512291,9590.432981
129.491993,1665.404530,-6087.340694,9399.007173
129.492616,2297.109696,-8614.161360,9111.868461
129.493239,1741.974853,-11102.696864,8709.874264
129.493862,957.129040,-12921.242040,8997.012976
129.494486,650.847747,-13533.804626,9590.432981
129.495109,114.855485,-13150.953010,10164.710405
129.495732,-210.568389,-11734.402030,10796.415571
129.496355,-765.703232,-10490.134278,10738.987829
129.496979,-1607.976787,-8671.589102,9992.427178
129.497602,-535.992262,-7829.315547,8958.727814
129.498225,689.132909,-6833.901346,8805.587168
129.498849,1933.400661,-5187.639397,9054.440718
129.499472,1895.115499,-3503.092286,9667.003304
129.500095,765.703232,-1952.543242,10068.997501
129.500718,631.705166,-1416.550979,9973.284597
129.501342,382.851616,-765.703232,9686.145885
129.501965,363.709035,325.423874,9533.005238
129.502588,-95.712904,2086.541307,9533.005238
129.503212,-574.277424,3866.801322,9705.288466
129.503835,-823.130974,6068.198114,10356.136213
129.504458,-306.281293,8097.311678,10758.130410
129.505081,-210.568389,10432.706536,10604.989763
129.505705,478.564520,11791.829773,10183.852986
129.506328,918.843878,12729.816232,9667.003304
129.506951,1339.980656,12902.099459,9322.436850
129.507575,861.416136,12748.958813,9150.153622
129.508198,382.851616,12366.107197,9073.583299
129.508821,306.281293,10834.700733,9150.153622
129.509444,191.425808,9533.005238,9533.005238
129.510068,306.281293,7752.745224,9992.427178
129.510691,229.710970,6565.905214,10547.562021
129.511314,-172.283227,5589.633594,10624.132344
129.511937,-133.998066,4326.223261,10796.415571
129.512561,-382.851616,2756.531635,10336.993632
129.513184,-689.132909,1493.121302,9954.142016
129.513807,-612.562586,-363.709035,9628.718142
129.514431,-899.701298,-1722.832272,9609.575562
129.515054,-861.416136,-2392.822600,9762.716208
129.515677,-325.423874,-3503.092286,9724.431046
129.516300,823.130974,-5015.356170,9628.718142
129.516924,2392.822600,-7637.889739,9322.436850
129.517547,2029.113565,-10260.423309,8997.012976
129.518170,1646.261949,-12385.249778,8805.587168
129.518794,918.843878,-13399.806560,8997.012976
129.519417,210.568389,-13227.523333,9877.571693
129.520040,19.142581,-12251.251712,10681.560086
129.520663,-574.277424,-11121.839445,11102.696864
129.521287,-1263.410333,-9494.720077,10394.421374
129.521910,-1167.697429,-8097.311678,9303.294269
129.522533,-38.285162,-7197.610381,8690.731683
129.523156,1569.691626,-5895.914886,8709.874264
129.523780,1741.974853,-4192.225195,9379.864592
129.524403,1339.980656,-2335.394858,9934.999435
129.525026,708.275490,-1665.404530,10107.282662
129.525650,401.994197,-880.558717,9896.714274
129.526273,842.273555,-344.566454,9590.432981
129.526896,267.996131,1244.267752,9533.005238
129.527519,-344.566454,3101.098090,9533.005238
129.528143,-708.275490,5187.639397,10068.997501
129.528766,-784.845813,7465.606512,10528.419440
129.529389,-191.425808,9494.720077,10738.987829
129.530013,-267.996131,11389.835576,10490.134278
129.530636,669.990328,12519.247843,9858.429112
129.531259,1550.549045,12729.816232,9399.007173
129.531882,1110.269686,12921.242040,9226.723946
129.532506,765.703232,12634.103328,8997.012976
129.533129,306.281293,11485.548480,9092.725880
129.533752,114.855485,10202.995566,9399.007173
129.534375,459.421939,8480.163294,9762.716208
129.534999,363.709035,7044.469734,10356.136213
129.535622,19.142581,6221.338760,10681.560086
129.536245,-153.140646,4804.787781,10758.130410
129.536869,-497.707101,3426.521963,10624.132344
129.537492,-248.853550,1914.258080,10107.282662
129.538115,-746.560651,440.279358,9667.003304
129.538738,-937.986459,-1091.127106,9686.145885
129.539362,-823.130974,-2163.111630,9743.573627
129.539985,-574.277424,-3139.383251,9801.001370
129.540608,401.994197,-4460.221326,9743.573627
129.541232,1914.258080,-6738.188442,9456.434915
129.541855,2029.113565,-9131.011042,9054.440718
129.542478,1856.830338,-11619.546546,8690.731683
129.543101,1052.841944,-13189.238171,8805.587168
129.543725,612.562586,-13495.519464,9609.575562
129.544348,133.998066,-12882.956878,10279.565890
129.544971,-440.279358,-11562.118803,11026.126541
129.545594,-976.271621,-10183.852986,10719.845248
129.546218,-1627.119368,-8575.876198,9762.716208
129.546841,-344.566454,-7733.602643,8805.587168
129.547464,1110.269686,-6546.762634,8729.016845
129.548088,1933.400661,-5015.356170,9111.868461
129.548711,1741.974853,-3043.670347,9647.860723
129.549334,631.705166,-1799.402595,9992.427178
129.549957,516.849682,-995.414202,9992.427178
129.550581,593.420005,-593.420005,9762.716208
129.551204,478.564520,497.707101,9552.147819
129.551827,-229.710970,2469.392923,9552.147819
129.552451,-593.420005,4287.938099,9801.001370
129.553074,-669.990328,6680.760699,10241.280728
129.553697,-133.998066,8614.161360,10758.130410
129.554320,-440.279358,11102.696864,10643.274925
129.554944,516.849682,12212.966550,10068.997501
129.555567,1091.127106,12921.242040,9628.718142
129.556190,1301.695494,13074.382686,9418.149754
129.556814,1071.984525,12729.816232,9054.440718
129.557437,306.281293,12098.111066,8997.012976
129.558060,229.710970,10662.417506,9073.583299
129.558683,287.138712,9092.725880,9571.290400
129.559307,114.855485,7503.891674,10164.710405
129.559930,114.855485,6489.334891,10681.560086
129.560553,-210.568389,5302.494882,10777.272990
129.561176,-267.996131,4096.512291,10738.987829
129.561800,-229.710970,2354.537438,10222.138147
129.562423,-784.845813,1110.269686,9877.571693
129.563046,-784.845813,-803.988394,9705.288466
129.563670,-937.986459,-2048.256146,9667.003304
129.564293,-918.843878,-2967.100024,9781.858789
129.564916,95.712904,-3962.514226,9781.858789
129.565539,1435.693560,-5627.918755,9590.432981
129.566163,2603.390989,-8116.454259,9265.009107
129.566786,1933.400661,-10643.274925,8748.159426
129.567410,1186.840010,-12710.673651,8671.589102
129.568033,746.560651,-13667.802691,9092.725880
129.568657,76.570323,-13572.089787,10011.569758
129.569280,-133.998066,-12270.394293,10796.415571
129.569903,-650.847747,-10930.413637,10987.841379
129.570527,-1588.834206,-8939.585234,10241.280728
129.571150,-746.560651,-7714.460062,9150.153622
129.571774,459.421939,-6853.043926,8748.159426
129.572397,1933.400661,-5436.492947,8824.729749
129.573021,1875.972918,-3924.229064,9418.149754
129.573644,861.416136,-2124.826469,9954.142016
129.574267,593.420005,-1512.263883,9973.284597
129.574891,421.136778,-880.558717,9820.143950
129.575514,612.562586,19.142581,9628.718142
129.576138,76.570323,1780.260014,9647.860723
129.576761,-497.707101,3675.375514,9571.290400
129.577385,-957.129040,5953.342629,10107.282662
129.578008,-555.134843,8097.311678,10413.563955
129.578631,-248.853550,10298.708470,10719.845248
129.579255,191.425808,11906.685258,10432.706536
129.579878,842.273555,12768.101394,9934.999435
129.580502,1531.406464,12863.814298,9533.005238
129.581125,937.986459,12748.958813,9131.011042
129.581749,516.849682,12480.962682,8901.300072
129.582372,287.138712,11064.411702,8997.012976
129.582996,210.568389,9915.856854,9322.436850
129.583619,459.421939,8288.737486,9858.429112
129.584242,153.140646,7025.327154,10585.847182
129.584866,-306.281293,5915.057467,10815.558152
129.585489,-153.140646,4211.367776,10872.985894
129.586113,-267.996131,2526.820666,10356.136213
129.586736,-497.707101,1454.836141,9896.714274
129.587360,-708.275490,-133.998066,9552.147819
129.587983,-1167.697429,-1359.123237,9667.003304
129.588606,-1052.841944,-2297.109696,9858.429112
129.589230,-382.851616,-3560.520029,9858.429112
129.589853,861.416136,-4996.213589,9667.003304
129.590477,2526.820666,-7618.747158,9245.866526
129.591100,2029.113565,-10145.567824,8920.442653
129.591724,1684.547110,-12308.679454,8556.733618
129.592347,861.416136,-13457.234302,8882.157491
129.592970,172.283227,-13361.521398,9781.858789
129.593594,57.427742,-12557.533005,10490.134278
129.594217,-516.849682,-11351.550414,11160.124606
129.594841,-1339.980656,-9667.003304,10566.704602
129.595464,-1416.550979,-8288.737486,9494.720077
129.596088,-210.568389,-7465.606512,8786.444587
129.596711,1473.978722,-6240.481341,8748.159426
129.597334,1914.258080,-4632.504554,9284.151688
129.597958,1531.406464,-2507.678085,9915.856854
129.598581,574.277424,-1646.261949,9973.284597
129.599205,229.710970,-765.703232,9934.999435
129.599828,650.847747,-325.423874,9724.431046
129.600452,344.566454,995.414202,9647.860723
129.601075,-210.568389,2947.957443,9494.720077
129.601699,-612.562586,4996.213589,9915.856854
129.602322,-689.132909,7389.036189,10336.993632
129.602945,-210.568389,9494.720077,10700.702667
129.603569,-325.423874,11696.116869,10604.989763
129.604192,574.277424,12825.529136,10049.854920
129.604816,1378.265818,12921.242040,9552.147819
129.605439,1014.556782,12940.384621,9360.722011
129.606063,765.703232,12691.531070,8977.870395
129.606686,114.855485,11523.833642,8939.585234
129.607309,133.998066,10202.995566,9188.438784
129.607933,784.845813,8537.591037,9686.145885
129.608556,382.851616,7255.038123,10413.563955
129.609180,-76.570323,6393.621987,10758.130410
129.609803,-325.423874,4957.928427,10796.415571
129.610427,-574.277424,3445.664544,10681.560086
129.611050,-267.996131,1780.260014,10088.140082
129.611673,-765.703232,344.566454,9590.432981
129.612297,-976.271621,-1033.699363,9609.575562
129.612920,-937.986459,-2182.254211,9743.573627
129.613544,-708.275490,-3158.525832,9896.714274
129.614167,440.279358,-4498.506488,9781.858789
129.614791,1952.543242,-6738.188442,9360.722011
129.615414,2086.541307,-9150.153622,8939.585234
129.616037,1761.117434,-11772.687192,8537.591037
129.616661,976.271621,-13399.806560,8729.016845
129.617284,593.420005,-13610.374949,9590.432981
129.617908,153.140646,-13131.810429,10298.708470
129.618531,-344.566454,-11696.116869,11083.554283
129.619155,-823.130974,-10260.423309,10777.272990
129.619778,-1569.691626,-8614.161360,9915.856854
129.620402,-440.279358,-7733.602643,8863.014910
129.621025,1091.127106,-6642.475538,8805.587168
129.621648,1914.258080,-4996.213589,9131.011042
129.622272,1761.117434,-3139.383251,9724.431046
129.622895,669.990328,-1856.830338,10011.569758
129.623519,440.279358,-1014.556782,9934.999435
129.624142,612.562586,-689.132909,9667.003304
129.624766,401.994197,612.562586,9552.147819
129.625389,-229.710970,2584.248408,9552.147819
129.626012,-555.134843,4402.793584,9858.429112
129.626636,-765.703232,6757.331022,10279.565890
129.627259,-172.283227,8824.729749,10758.130410
129.627883,-344.566454,11217.552349,10681.560086
129.628506,593.420005,12500.105262,10183.852986
129.629130,1091.127106,13016.954944,9705.288466
129.629753,1091.127106,13150.953010,9456.434915
129.630376,861.416136,12710.673651,9073.583299
129.631000,133.998066,12155.538808,9035.298138
129.631623,38.285162,10643.274925,9073.583299
129.632247,593.420005,9150.153622,9571.290400
129.632870,459.421939,7695.317482,10107.282662
129.633494,344.566454,6699.903280,10643.274925
129.634117,-287.138712,5302.494882,10853.843314
129.634740,-459.421939,4019.941968,10834.700733
129.635364,-133.998066,2163.111630,10202.995566
129.635987,-650.847747,861.416136,9820.143950
129.636611,-535.992262,-880.558717,9686.145885
129.637234,-861.416136,-2009.970984,9628.718142
129.637858,-1014.556782,-2775.674216,9743.573627
129.638481,-133.998066,-3847.658741,9801.001370
129.639104,1282.552914,-5857.629725,9609.575562
129.639728,2354.537438,-8595.018779,9284.151688
129.640351,1990.828403,-11198.409768,8786.444587
129.640975,1378.265818,-13112.667848,8614.161360
129.641598,861.416136,-13667.802691,9150.153622
129.642222,95.712904,-13246.665914,9934.999435
129.642845,-229.710970,-11887.542677,10911.271056
129.643469,-727.418070,-10796.415571,11064.411702
129.644092,-1646.261949,-9035.298138,10202.995566
129.644715,-708.275490,-8020.741355,9054.440718
129.645339,421.136778,-7006.184573,8748.159426
129.645962,1741.974853,-5417.350366,8882.157491
129.646586,1875.972918,-3790.230998,9418.149754
129.647209,880.558717,-2009.970984,9896.714274
129.647833,689.132909,-1339.980656,9992.427178
129.648456,631.705166,-708.275490,9858.429112
129.649079,650.847747,229.710970,9667.003304
129.649703,95.712904,1952.543242,9552.147819
129.650326,-497.707101,3751.945837,9513.862658
129.650950,-880.558717,6106.483275,10126.425243
129.651573,-344.566454,8193.024582,10681.560086
129.652197,-287.138712,10662.417506,10777.272990
129.652820,172.283227,12232.109131,10394.421374
129.653443,669.990328,12978.669782,9934.999435
129.654067,1435.693560,12978.669782,9513.862658
129.654690,1052.841944,12844.671717,9169.296203
129.655314,497.707101,12500.105262,8958.727814
129.655937,191.425808,11083.554283,8901.300072
129.656561,210.568389,9686.145885,9360.722011
129.657184,497.707101,8059.026517,9954.142016
129.657807,325.423874,6872.186507,10585.847182
129.658431,-210.568389,5838.487144,10796.415571
129.659054,-229.710970,4326.223261,10758.130410
129.659678,-401.994197,2565.105827,10298.708470
129.660301,-669.990328,1359.123237,9992.427178
129.660925,-516.849682,-516.849682,9628.718142
129.661548,-957.129040,-1588.834206,9686.145885
129.662172,-937.986459,-2373.680019,9781.858789
129.662795,-248.853550,-3713.660675,9877.571693
129.663418,803.988394,-5340.780043,9762.716208
129.664042,2392.822600,-8039.883936,9284.151688
129.664665,1971.685822,-10547.562021,8767.302006
129.665289,1569.691626,-12653.245909,8518.448456
129.665912,880.558717,-13610.374949,8824.729749
129.666536,229.710970,-13476.376883,9820.143950
129.667160,76.570323,-12404.392358,10719.845248
129.667783,-555.134843,-11274.980091,11121.839445
129.668407,-1550.549045,-9437.292334,10413.563955
129.669031,-1167.697429,-8154.739421,9322.436850
129.669654,19.142581,-7389.036189,8805.587168
129.670278,1607.976787,-6010.770371,8920.442653
129.670902,1799.402595,-4345.365842,9341.579430
129.671525,1071.984525,-2239.681954,9896.714274
129.672149,574.277424,-1607.976787,10011.569758
129.672772,401.994197,-880.558717,9954.142016
129.673396,861.416136,-267.996131,9724.431046
129.674020,440.279358,1512.263883,9609.575562
129.674643,-248.853550,3483.949706,9475.577496
129.675267,-669.990328,5627.918755,10030.712339
129.675891,-535.992262,7810.172966,10490.134278
129.676514,-172.283227,9877.571693,10681.560086
129.677138,-287.138712,11772.687192,10470.991698
129.677762,421.136778,12863.814298,9934.999435
129.678385,1339.980656,13016.954944,9628.718142
129.679009,1014.556782,13074.382686,9341.579430
129.679633,765.703232,12844.671717,8997.012976
129.680256,229.710970,11504.691061,8939.585234
129.680880,76.570323,10088.140082,9245.866526
129.681504,669.990328,8154.739421,9609.575562
129.682127,421.136778,6948.756830,10356.136213
129.682751,-153.140646,6183.053598,10758.130410
129.683374,-210.568389,4670.789715,10930.413637
129.683998,-516.849682,3273.381317,10700.702667
129.684622,-382.851616,1895.115499,10088.140082
129.685245,-746.560651,114.855485,9533.005238
129.685869,-1091.127106,-1416.550979,9571.290400
129.686493,-995.414202,-2622.533570,9762.716208
129.687116,-612.562586,-3809.373579,9877.571693
129.687740,478.564520,-4996.213589,9820.143950
129.688364,2182.254211,-7350.751027,9494.720077
129.688987,2124.826469,-9647.860723,9092.725880
129.689611,2048.256146,-11964.113000,8575.876198
129.690235,1148.554848,-13457.234302,8614.161360
129.690858,459.421939,-13629.517530,9513.862658
129.691482,38.285162,-12902.099459,10336.993632
129.692106,-650.847747,-11791.829773,11140.982026
129.692729,-1301.695494,-10088.140082,10662.417506
129.693353,-1493.121302,-8575.876198,9762.716208
129.693977,-267.996131,-7580.461997,8920.442653
129.694600,1320.838075,-6317.051664,8748.159426
129.695224,1780.260014,-4555.934230,9150.153622
129.695847,1493.121302,-2565.105827,9705.288466
129.696471,689.132909,-1703.689691,9915.856854
129.697095,401.994197,-823.130974,10049.854920
129.697718,823.130974,-593.420005,9839.286531
129.698342,440.279358,842.273555,9686.145885
129.698966,-210.568389,2775.674216,9494.720077
129.699589,-555.134843,4862.215523,9801.001370
129.700213,-689.132909,7408.178770,10222.138147
129.700837,-133.998066,9743.573627,10624.132344
129.701460,-325.423874,11944.970419,10604.989763
129.702084,478.564520,13016.954944,10145.567824
129.702708,1282.552914,13074.382686,9762.716208
129.703331,1071.984525,12940.384621,9533.005238
129.703955,880.558717,12576.675586,8977.870395
129.704579,76.570323,11581.261384,8882.157491
129.705202,133.998066,10394.421374,9035.298138
129.705826,593.420005,8882.157491,9494.720077
129.706450,555.134843,7695.317482,10279.565890
129.707073,95.712904,6776.473603,10758.130410
129.707697,-267.996131,5130.211654,10834.700733
129.708320,-574.277424,3503.092286,10777.272990
129.708944,-306.281293,1646.261949,10107.282662
129.709568,-803.988394,153.140646,9590.432981
129.710191,-937.986459,-1263.410333,9628.718142
129.710815,-880.558717,-2201.396792,9762.716208
129.711439,-727.418070,-2947.957443,9896.714274
129.712062,95.712904,-4249.652938,9915.856854
129.712686,1646.261949,-6585.047795,9609.575562
129.713310,2163.111630,-9265.009107,9150.153622
129.713933,2029.113565,-11983.255581,8499.305875
129.714557,1320.838075,-13706.087853,8499.305875
129.715181,689.132909,-13801.800757,9303.294269
129.715804,38.285162,-13150.953010,10183.852986
129.716428,-478.564520,-11619.546546,11083.554283
129.717052,-1091.127106,-10298.708470,10911.271056
129.717675,-1588.834206,-8729.016845,10011.569758
129.718299,-325.423874,-7829.315547,9035.298138
129.718922,1091.127106,-6642.475538,8805.587168
129.719546,1741.974853,-5034.498750,9073.583299
129.720170,1493.121302,-3215.953574,9571.290400
129.720793,593.420005,-2009.970984,9896.714274
129.721417,459.421939,-1052.841944,10011.569758
129.722041,765.703232,-650.847747,9839.286531
129.722664,593.420005,727.418070,9609.575562
129.723288,-57.427742,2737.389054,9513.862658
129.723912,-459.421939,4632.504554,9705.288466
129.724535,-689.132909,6987.041992,10145.567824
129.725159,-57.427742,8977.870395,10700.702667
129.725783,-421.136778,11294.122672,10719.845248
129.726406,325.423874,12576.675586,10241.280728
129.727030,842.273555,13093.525267,9915.856854
129.727654,1129.412267,13189.238171,9590.432981
129.728277,1033.699363,12863.814298,9111.868461
129.728901,248.853550,12308.679454,8920.442653
129.729525,114.855485,10758.130410,8901.300072
129.730148,497.707101,9169.296203,9379.864592
129.730772,497.707101,7676.174901,10068.997501
129.731395,325.423874,6661.618118,10624.132344
129.732019,-229.710970,5264.209720,10930.413637
129.732643,-459.421939,3981.656806,10892.128475
129.733266,-191.425808,2124.826469,10164.710405
129.733890,-727.418070,937.986459,9743.573627
129.734514,-784.845813,-784.845813,9686.145885
129.735137,-995.414202,-1933.400661,9667.003304
129.735761,-957.129040,-2852.244539,9934.999435
129.736385,-38.285162,-4211.367776,9781.858789
129.737008,1416.550979,-6374.479406,9628.718142
129.737632,2316.252277,-8997.012976,9245.866526
129.738256,1952.543242,-11523.833642,8575.876198
129.738879,1301.695494,-13284.951075,8441.878133
129.739503,784.845813,-13686.945272,9054.440718
129.740127,95.712904,-13380.663979,9954.142016
129.740750,-172.283227,-12021.540742,10930.413637
129.741374,-746.560651,-10777.272990,11064.411702
129.741998,-1665.404530,-8997.012976,10279.565890
129.742621,-727.418070,-7905.885870,9150.153622
129.743245,631.705166,-7044.469734,8882.157491
129.743868,1703.689691,-5474.778109,8977.870395
129.744492,1780.260014,-3541.377448,9456.434915
129.745116,784.845813,-1952.543242,9820.143950
129.745739,555.134843,-1148.554848,10011.569758
129.746363,631.705166,-612.562586,9877.571693
129.746987,631.705166,344.566454,9724.431046
129.747610,172.283227,2143.969050,9571.290400
129.748234,-363.709035,3981.656806,9513.862658
129.748858,-727.418070,6336.194245,10030.712339
129.749481,-267.996131,8499.305875,10604.989763
129.750105,-325.423874,11140.982026,10681.560086
129.750729,248.853550,12634.103328,10375.278794
129.751352,669.990328,13342.378818,9992.427178
129.751976,1186.840010,13342.378818,9686.145885
129.752600,976.271621,12902.099459,9226.723946
129.753223,306.281293,12308.679454,8958.727814
129.753847,153.140646,10719.845248,8786.444587
129.754471,440.279358,9303.294269,9265.009107
129.755094,631.705166,7886.743290,9954.142016
129.755718,478.564520,7063.612315,10585.847182
129.756341,-172.283227,5895.914886,10853.843314
129.756965,-440.279358,4402.793584,10930.413637
129.757589,-401.994197,2354.537438,10375.278794
129.758212,-803.988394,899.701298,9915.856854
129.758836,-612.562586,-976.271621,9609.575562
129.759460,-880.558717,-2143.969050,9628.718142
129.760083,-861.416136,-2852.244539,9896.714274
129.760707,-172.283227,-3828.516160,9934.999435
129.761331,918.843878,-5570.491013,9781.858789
129.761954,2277.967115,-8307.880067,9303.294269
129.762578,1952.543242,-11006.983960,8671.589102
129.763202,1569.691626,-13227.523333,8422.735552
129.763825,1071.984525,-14031.511726,8805.587168
129.764449,172.283227,-13591.232368,9743.573627
129.765073,-267.996131,-12270.394293,10834.700733
129.765696,-842.273555,-11102.696864,11236.694930
129.766320,-1646.261949,-9245.866526,10490.134278
129.766943,-708.275490,-8193.024582,9245.866526
129.767567,459.421939,-7159.325219,8786.444587
129.768191,1665.404530,-5493.920690,8920.442653
129.768814,1684.547110,-4019.941968,9360.722011
129.769438,823.130974,-2143.969050,9877.571693
129.770062,746.560651,-1512.263883,10049.854920
129.770685,631.705166,-918.843878,9858.429112
129.771309,803.988394,57.427742,9705.288466
129.771932,210.568389,1933.400661,9533.005238
129.772556,-440.279358,3962.514226,9399.007173
129.773179,-708.275490,6221.338760,9973.284597
129.773803,-344.566454,8403.592971,10528.419440
129.774426,-153.140646,10585.847182,10662.417506
129.775050,19.142581,12193.823970,10566.704602
129.775673,421.136778,13074.382686,10011.569758
129.776296,1320.838075,13150.953010,9686.145885
129.776920,1033.699363,12902.099459,9303.294269
129.777543,631.705166,12710.673651,9016.155557
129.778167,133.998066,11236.694930,8748.159426
129.778790,191.425808,9839.286531,9150.153622
129.779414,574.277424,8059.026517,9724.431046
129.780037,535.992262,6929.614250,10528.419440
129.780661,0.000000,5991.627790,10815.558152
129.781284,-229.710970,4517.649069,10949.556218
129.781908,-497.707101,2775.674216,10528.419440
129.782531,-880.558717,1397.408398,10011.569758
129.783155,-746.560651,-650.847747,9590.432981
129.783778,-937.986459,-1875.972918,9590.432981
129.784402,-861.416136,-2660.818731,9801.001370
129.785025,-248.853550,-3751.945837,9896.714274
129.785649,803.988394,-5245.067139,9954.142016
129.786272,2354.537438,-8020.741355,9533.005238
129.786895,2009.970984,-10738.987829,8863.014910
129.787519,1607.976787,-12940.384621,8307.880067
129.788142,880.558717,-14088.939469,8441.878133
129.788766,133.998066,-13782.658176,9494.720077
129.789389,57.427742,-12576.675586,10566.704602
129.790013,-650.847747,-11083.554283,11236.694930
129.790636,-1646.261949,-9284.151688,10719.845248
129.791260,-1167.697429,-8097.311678,9552.147819
129.791883,0.000000,-7408.178770,8882.157491
129.792507,1569.691626,-6278.766502,8824.729749
129.793130,1837.687757,-4785.645200,9073.583299
129.793754,1110.269686,-2526.820666,9743.573627
129.794377,708.275490,-1569.691626,10030.712339
129.795001,497.707101,-478.564520,9954.142016
129.795624,880.558717,210.568389,9877.571693
129.796248,306.281293,1722.832272,9590.432981
129.796871,-382.851616,3522.234867,9360.722011
129.797495,-842.273555,5761.916821,9801.001370
129.798118,-612.562586,7925.028451,10279.565890
129.798741,-133.998066,10164.710405,10700.702667
129.799365,-210.568389,12117.253646,10796.415571
129.799988,459.421939,13284.951075,10222.138147
129.800612,1435.693560,13361.521398,9743.573627
129.801235,976.271621,13170.095590,9379.864592
129.801859,669.990328,12806.386555,8901.300072
129.802482,0.000000,11428.120738,8824.729749
129.803106,114.855485,9992.427178,9150.153622
129.803729,555.134843,8346.165229,9609.575562
129.804353,650.847747,7121.040058,10451.849117
129.804976,-19.142581,6374.479406,10872.985894
129.805600,-229.710970,4843.072942,10968.698798
129.806223,-555.134843,2986.242605,10643.274925
129.806847,-803.988394,1569.691626,10049.854920
129.807470,-708.275490,-287.138712,9590.432981
129.808094,-995.414202,-1703.689691,9667.003304
129.808717,-765.703232,-2641.676150,9801.001370
129.809340,-401.994197,-3751.945837,9954.142016
129.809964,497.707101,-5149.354235,9973.284597
129.810587,2163.111630,-7752.745224,9533.005238
129.811211,1971.685822,-10432.706536,8863.014910
129.811834,1818.545176,-12806.386555,8250.452325
129.812458,1110.269686,-14031.511726,8422.735552
129.813081,306.281293,-13706.087853,9437.292334
129.813705,19.142581,-12672.388490,10451.849117
129.814328,-612.562586,-11255.837510,11217.552349
129.814952,-1435.693560,-9590.432981,10796.415571
129.815575,-1129.412267,-8422.735552,9647.860723
129.816199,-76.570323,-7676.174901,8958.727814
129.816822,1339.980656,-6355.336826,8863.014910
129.817446,1607.976787,-4689.932296,9073.583299
129.818069,1186.840010,-2507.678085,9686.145885
129.818693,784.845813,-1493.121302,9954.142016
129.819316,574.277424,-669.990328,10011.569758
129.819940,880.558717,-38.285162,9915.856854
129.820563,325.423874,1531.406464,9590.432981
129.821186,-344.566454,3254.238736,9399.007173
129.821810,-689.132909,5264.209720,9724.431046
129.822433,-459.421939,7676.174901,10183.852986
129.823057,19.142581,10011.569758,10604.989763
129.823680,-306.281293,12232.109131,10662.417506
129.824304,382.851616,13552.947206,10336.993632
129.824927,1186.840010,13514.662045,9954.142016
129.825551,937.986459,13170.095590,9494.720077
129.826174,727.418070,12691.531070,8958.727814
129.826798,114.855485,11351.550414,8709.874264
129.827421,19.142581,10107.282662,8977.870395
129.828045,574.277424,8480.163294,9533.005238
129.828668,669.990328,7331.608446,10432.706536
129.829292,76.570323,6719.045861,10949.556218
129.829915,-57.427742,5111.069074,11064.411702
129.830539,-497.707101,3254.238736,10643.274925
129.831162,-535.992262,1627.119368,10011.569758
129.831785,-918.843878,-229.710970,9533.005238
129.832409,-1129.412267,-1703.689691,9724.431046
129.833032,-957.129040,-2718.246474,9858.429112
129.833656,-516.849682,-3694.518094,10049.854920
129.834279,478.564520,-4900.500685,9954.142016
129.834903,2201.396792,-7235.895542,9475.577496
129.835526,1914.258080,-9877.571693,8939.585234
129.836150,1856.830338,-12442.677520,8327.022648
129.836773,1052.841944,-14031.511726,8327.022648
129.837397,382.851616,-13954.941403,9322.436850
129.838020,95.712904,-13170.095590,10298.708470
129.838644,-516.849682,-11715.259450,11236.694930
129.839267,-1320.838075,-9781.858789,10853.843314
129.839891,-1339.980656,-8384.450390,9877.571693
129.840514,-95.712904,-7561.319416,9016.155557
129.841138,1339.980656,-6470.192310,8805.587168
129.841761,1703.689691,-4862.215523,9092.725880
129.842385,1263.410333,-2813.959378,9667.003304
129.843008,612.562586,-1780.260014,9915.856854
129.843631,516.849682,-823.130974,9992.427178
129.844255,976.271621,-267.996131,9915.856854
129.844878,555.134843,1397.408398,9628.718142
129.845502,-172.283227,3311.666478,9360.722011
129.846125,-574.277424,5340.780043,9667.003304
129.846749,-650.847747,7618.747158,10088.140082
129.847372,-76.570323,9858.429112,10643.274925
129.847996,-421.136778,12021.540742,10700.702667
129.848619,401.994197,13189.238171,10317.851051
129.849243,1225.125171,13418.949141,9896.714274
129.849866,1091.127106,13170.095590,9533.005238
129.850490,918.843878,12787.243974,8939.585234
129.851113,57.427742,11600.403965,8729.016845
129.851737,114.855485,10375.278794,8920.442653
129.852360,612.562586,8729.016845,9456.434915
129.852984,593.420005,7312.465866,10279.565890
129.853607,114.855485,6604.190376,10892.128475
129.854230,-38.285162,4996.213589,11102.696864
129.854854,-497.707101,3311.666478,10700.702667
129.855477,-459.421939,1722.832272,10126.425243
129.856101,-861.416136,114.855485,9494.720077
129.856724,-1091.127106,-1397.408398,9686.145885
129.857348,-1033.699363,-2545.963246,9820.143950
129.857971,-689.132909,-3541.377448,10030.712339
129.858595,382.851616,-4843.072942,9896.714274
129.859218,1952.543242,-7216.752962,9533.005238
129.859842,2086.541307,-9801.001370,9016.155557
129.860465,1952.543242,-12308.679454,8365.307810
129.861089,1205.982590,-13935.798822,8288.737486
129.861712,574.277424,-13878.371080,9226.723946
129.862336,38.285162,-13304.093656,10164.710405
129.862959,-555.134843,-11734.402030,11160.124606
129.863583,-1301.695494,-10011.569758,10930.413637
129.864206,-1416.550979,-8518.448456,9992.427178
129.864830,-267.996131,-7733.602643,9016.155557
129.865453,1205.982590,-6604.190376,8863.014910
129.866076,1627.119368,-4919.643266,9054.440718
129.866700,1359.123237,-2967.100024,9609.575562
129.867323,574.277424,-1818.545176,9839.286531
129.867947,535.992262,-880.558717,10030.712339
129.868570,995.414202,-306.281293,9877.571693
129.869194,612.562586,1282.552914,9686.145885
129.869817,-95.712904,3081.955509,9533.005238
129.870440,-478.564520,4996.213589,9590.432981
129.871063,-689.132909,7331.608446,10011.569758
129.871687,-95.712904,9628.718142,10509.276859
129.872310,-535.992262,11964.113000,10662.417506
129.872934,191.425808,13284.951075,10394.421374
129.873557,1148.554848,13476.376883,10049.854920
129.874181,1071.984525,13418.949141,9686.145885
129.874804,995.414202,12902.099459,9073.583299
129.875428,95.712904,11676.974288,8843.872330
129.876051,57.427742,10260.423309,8786.444587
129.876674,631.705166,8748.159426,9322.436850
129.877298,689.132909,7561.319416,10145.567824
129.877921,191.425808,6891.329088,10892.128475
129.878545,-19.142581,5417.350366,11102.696864
129.879168,-516.849682,3694.518094,10834.700733
129.879792,-401.994197,1856.830338,10088.140082
129.880415,-880.558717,0.000000,9513.862658
129.881039,-1129.412267,-1646.261949,9552.147819
129.881662,-937.986459,-2660.818731,9724.431046
129.882285,-650.847747,-3464.807125,9973.284597
129.882909,306.281293,-4613.361973,10049.854920
129.883532,1933.400661,-6929.614250,9724.431046
129.884156,1990.828403,-9571.290400,9169.296203
129.884779,1952.543242,-12270.394293,8327.022648
129.885403,1205.982590,-14165.509792,8173.882002
129.886026,574.277424,-14222.937534,9111.868461
129.886650,95.712904,-13533.804626,10107.282662
129.887273,-459.421939,-11868.400096,11179.267187
129.887896,-1378.265818,-10049.854920,11006.983960
129.888520,-1531.406464,-8480.163294,10107.282662
129.889143,-344.566454,-7752.745224,9092.725880
129.889767,1205.982590,-6795.616184,8843.872330
129.890390,1741.974853,-5149.354235,8977.870395
129.891014,1378.265818,-3120.240670,9494.720077
129.891637,593.420005,-1952.543242,9762.716208
129.892261,497.707101,-899.701298,9934.999435
129.892884,1052.841944,-325.423874,9954.142016
129.893507,708.275490,1205.982590,9724.431046
129.894131,-114.855485,3062.812928,9513.862658
129.894754,-612.562586,5187.639397,9552.147819
129.895378,-727.418070,7408.178770,9954.142016
129.896001,19.142581,9552.147819,10509.276859
129.896625,-382.851616,11868.400096,10719.845248
129.897248,440.279358,13170.095590,10394.421374
129.897872,1014.556782,13476.376883,9992.427178
129.898495,995.414202,13399.806560,9762.716208
129.899118,861.416136,12921.242040,9054.440718
129.899742,19.142581,11944.970419,8824.729749
129.900365,76.570323,10490.134278,8709.874264
129.900989,650.847747,8901.300072,9169.296203
129.901612,669.990328,7599.604578,10049.854920
129.902236,248.853550,6853.043926,10872.985894
129.902859,-19.142581,5283.352301,11102.696864
129.903483,-516.849682,3617.947771,10892.128475
129.904106,-459.421939,1895.115499,10202.995566
129.904729,-899.701298,38.285162,9609.575562
129.905353,-1052.841944,-1435.693560,9590.432981
129.905976,-957.129040,-2507.678085,9724.431046
129.906600,-784.845813,-3254.238736,9934.999435
129.907223,38.285162,-4479.363907,10030.712339
129.907847,1627.119368,-6833.901346,9781.858789
129.908470,2124.826469,-9801.001370,9245.866526
129.909094,2163.111630,-12672.388490,8365.307810
129.909717,1416.550979,-14318.650438,8116.454259
129.910340,669.990328,-14146.367211,8958.727814
129.910964,95.712904,-13323.236237,9934.999435
129.911587,-535.992262,-11619.546546,11083.554283
129.912211,-1263.410333,-10049.854920,11121.839445
129.912834,-1493.121302,-8614.161360,10241.280728
129.913458,-306.281293,-7963.313613,9150.153622
129.914081,1071.984525,-6872.186507,8824.729749
129.914705,1531.406464,-5283.352301,8920.442653
129.915328,1416.550979,-3273.381317,9494.720077
129.915951,650.847747,-1990.828403,9762.716208
129.916575,459.421939,-803.988394,10107.282662
129.917198,937.986459,-191.425808,10068.997501
129.917822,612.562586,1301.695494,9762.716208
129.918445,0.000000,2986.242605,9437.292334
129.919069,-382.851616,4996.213589,9456.434915
129.919692,-631.705166,7331.608446,9820.143950
129.920316,-76.570323,9552.147819,10451.849117
129.920939,-478.564520,12002.398162,10777.272990
129.921562,267.996131,13304.093656,10470.991698
129.922186,842.273555,13591.232368,10126.425243
129.922809,918.843878,13514.662045,9839.286531
129.923433,937.986459,12921.242040,9054.440718
129.924056,114.855485,11925.827838,8767.302006
129.924680,153.140646,10509.276859,8595.018779
129.925303,593.420005,8882.157491,9188.438784
129.925927,708.275490,7580.461997,10164.710405
129.926550,287.138712,6910.471669,10853.843314
129.927173,-38.285162,5398.207786,11083.554283
129.927797,-516.849682,3732.803256,10911.271056
129.928420,-344.566454,1856.830338,10202.995566
129.929044,-899.701298,153.140646,9628.718142
129.929667,-1110.269686,-1397.408398,9647.860723
129.930291,-1071.984525,-2431.107762,9724.431046
129.930914,-765.703232,-3426.521963,10049.854920
129.931538,172.283227,-4766.502619,10088.140082
129.932161,1780.260014,-7121.040058,9820.143950
129.932784,2105.683888,-9801.001370,9188.438784
129.933408,1952.543242,-12327.822035,8346.165229
129.934031,1244.267752,-14012.369146,8154.739421
129.934655,650.847747,-14069.796888,8958.727814
129.935278,210.568389,-13399.806560,9934.999435
129.935902,-363.709035,-11791.829773,10987.841379
129.936525,-1301.695494,-10202.995566,10987.841379
129.937149,-1550.549045,-8709.874264,10126.425243
129.937772,-440.279358,-7944.171032,9265.009107
129.938395,1167.697429,-7006.184573,8939.585234
129.939019,1741.974853,-5206.781978,9073.583299
129.939642,1473.978722,-3081.955509,9590.432981
129.940266,612.562586,-1799.402595,9801.001370
129.940889,497.707101,-746.560651,9973.284597
129.941513,937.986459,-306.281293,9896.714274
129.942136,593.420005,1033.699363,9762.716208
129.942760,-38.285162,2813.959378,9533.005238
129.943383,-459.421939,4843.072942,9533.005238
129.944006,-612.562586,7274.180704,9896.714274
129.944630,57.427742,9533.005238,10509.276859
129.945253,-382.851616,12155.538808,10662.417506
129.945877,267.996131,13495.519464,10451.849117
129.946500,765.703232,13782.658176,10126.425243
129.947124,842.273555,13533.804626,9877.571693
129.947747,880.558717,12825.529136,9169.296203
129.948371,-38.285162,11830.114934,8920.442653
129.948994,210.568389,10356.136213,8767.302006
129.949617,708.275490,8882.157491,9169.296203
129.950241,746.560651,7676.174901,10011.569758
129.950864,306.281293,7044.469734,10815.558152
129.951488,-19.142581,5570.491013,11045.269122
129.952111,-593.420005,3847.658741,10892.128475
129.952735,-459.421939,1933.400661,10260.423309
129.953358,-880.558717,38.285162,9628.718142
129.953982,-1014.556782,-1607.976787,9552.147819
129.954605,-823.130974,-2679.961312,9724.431046
129.955228,-746.560651,-3464.807125,10068.997501
129.955852,57.427742,-4689.932296,10068.997501
129.956475,1607.976787,-7006.184573,9781.858789
129.957099,2009.970984,-9724.431046,9207.581365
129.957722,2086.541307,-12385.249778,8288.737486
129.958346,1512.263883,-14127.224630,8078.169098
129.958969,727.418070,-14146.367211,8901.300072
129.959593,95.712904,-13399.806560,9896.714274
129.960216,-574.277424,-11791.829773,11045.269122
129.960839,-1339.980656,-10241.280728,11102.696864
129.961463,-1512.263883,-8786.444587,10164.710405
129.962086,-306.281293,-8039.883936,9341.579430
129.962710,1225.125171,-6853.043926,8977.870395
129.963333,1569.691626,-5034.498750,8977.870395
129.963957,1263.410333,-3177.668413,9475.577496
129.964580,593.420005,-1875.972918,9801.001370
129.965204,459.421939,-861.416136,10011.569758
129.965827,899.701298,-421.136778,9915.856854
129.966450,612.562586,1148.554848,9647.860723
129.967074,19.142581,3024.527766,9418.149754
129.967697,-363.709035,5111.069074,9533.005238
129.968321,-535.992262,7465.606512,9954.142016
129.968944,38.285162,9686.145885,10566.704602
129.969568,-344.566454,12021.540742,10604.989763
129.970191,287.138712,13380.663979,10394.421374
129.970814,823.130974,13725.230434,10049.854920
129.971437,937.986459,13572.089787,9858.429112
129.972061,995.414202,12959.527202,9207.581365
129.972684,57.427742,11925.827838,8920.442653
129.973307,114.855485,10413.563955,8729.016845
129.973931,708.275490,8843.872330,9092.725880
129.974554,727.418070,7599.604578,9934.999435
129.975177,325.423874,6872.186507,10738.987829
129.975800,38.285162,5398.207786,11006.983960
129.976424,-555.134843,3713.660675,10968.698798
129.977047,-478.564520,1990.828403,10336.993632
129.977670,-861.416136,153.140646,9590.432981
129.978294,-1129.412267,-1512.263883,9590.432981
129.978917,-918.843878,-2756.531635,9628.718142
129.979540,-727.418070,-3579.662610,9973.284597
129.980163,114.855485,-4747.360038,10088.140082
129.980787,1741.974853,-7044.469734,9820.143950
129.981410,1971.685822,-9743.573627,9207.581365
129.982033,1990.828403,-12385.249778,8346.165229
129.982657,1339.980656,-14146.367211,8020.741355
129.983280,784.845813,-14222.937534,8882.157491
129.983903,248.853550,-13476.376883,9896.714274
129.984526,-497.707101,-11906.685258,11006.983960
129.985150,-1435.693560,-10164.710405,11083.554283
129.985773,-1435.693560,-8671.589102,10260.423309
129.986396,-210.568389,-7925.028451,9322.436850
129.987020,1359.123237,-6910.471669,9016.155557
129.987643,1722.832272,-5206.781978,8939.585234
129.988266,1301.695494,-3101.098090,9494.720077
129.988889,440.279358,-1780.260014,9743.573627
129.989513,440.279358,-765.703232,9934.999435
129.990136,1052.841944,-229.710970,9934.999435
129.990759,784.845813,1320.838075,9705.288466
129.991383,0.000000,3081.955509,9418.149754
129.992006,-574.277424,5091.926493,9475.577496
129.992629,-631.705166,7369.893608,9954.142016
129.993252,19.142581,9609.575562,10413.563955
129.993876,-401.994197,12136.396227,10624.132344
129.994499,287.138712,13514.662045,10432.706536
129.995122,823.130974,13878.371080,10202.995566
129.995746,823.130974,13686.945272,9896.714274
129.996369,861.416136,13055.240106,9169.296203
129.996992,114.855485,11810.972354,8824.729749
129.997615,248.853550,10432.706536,8767.302006
129.998239,823.130974,8863.014910,9169.296203
129.998862,842.273555,7580.461997,9954.142016
129.999485,114.855485,6948.756830,10758.130410
130.000108,-76.570323,5359.922624,11102.696864
130.000732,-593.420005,3656.232933,10968.698798
130.001355,-574.277424,1933.400661,10241.280728
130.001978,-937.986459,95.712904,9513.862658
130.002602,-1186.840010,-1435.693560,9494.720077
130.003225,-957.129040,-2718.246474,9686.145885
130.003848,-593.420005,-3713.660675,10126.425243
130.004471,401.994197,-4977.071008,10222.138147
130.005095,1875.972918,-7408.178770,9781.858789
130.005718,1933.400661,-10145.567824,9188.438784
130.006341,1914.258080,-12748.958813,8269.594906
130.006965,1244.267752,-14356.935600,8039.883936
130.007588,650.847747,-14146.367211,8939.585234
130.008211,153.140646,-13361.521398,9934.999435
130.008834,-401.994197,-11753.544611,11102.696864
130.009458,-1435.693560,-10107.282662,11006.983960
130.010081,-1397.408398,-8767.302006,10164.710405
130.010704,-248.853550,-8078.169098,9265.009107
130.011328,1282.552914,-6948.756830,9016.155557
130.011951,1627.119368,-5187.639397,9035.298138
130.012574,1225.125171,-2967.100024,9571.290400
130.013197,593.420005,-1627.119368,9781.858789
130.013821,535.992262,-612.562586,9992.427178
130.014444,1033.699363,-57.427742,9973.284597
130.015067,593.420005,1416.550979,9667.003304
130.015691,-133.998066,3101.098090,9399.007173
130.016314,-555.134843,5053.641331,9513.862658
130.016937,-593.420005,7542.176835,9934.999435
130.017560,19.142581,10068.997501,10470.991698
130.018184,-248.853550,12576.675586,10662.417506
130.018807,440.279358,13897.513661,10432.706536
130.019430,1071.984525,14031.511726,10088.140082
130.020054,823.130974,13533.804626,9858.429112
130.020677,765.703232,12825.529136,9150.153622
130.021300,-95.712904,11542.976222,8824.729749
130.021923,248.853550,10107.282662,8729.016845
130.022547,803.988394,8729.016845,9188.438784
130.023170,899.701298,7771.887805,10088.140082
130.023793,95.712904,7140.182638,10853.843314
130.024416,-133.998066,5474.778109,11121.839445
130.025040,-535.992262,3388.236802,10815.558152
130.025663,-593.420005,1512.263883,10202.995566
130.026286,-727.418070,-459.421939,9609.575562
130.026910,-1052.841944,-1914.258080,9628.718142
130.027533,-861.416136,-2833.101958,9801.001370
130.028156,-593.420005,-3713.660675,10145.567824
130.028779,191.425808,-4977.071008,10145.567824
130.029403,1703.689691,-7427.321350,9781.858789
130.030026,1646.261949,-10317.851051,9035.298138
130.030649,1856.830338,-12959.527202,8173.882002
130.031273,1359.123237,-14510.076246,8039.883936
130.031896,593.420005,-14203.794954,9054.440718
130.032519,210.568389,-13208.380752,10145.567824
130.033142,-650.847747,-11638.689126,11179.267187
130.033766,-1569.691626,-9896.714274,10911.271056
130.034389,-1205.982590,-8729.016845,9934.999435
130.035012,38.285162,-7963.313613,9226.723946
130.035636,1435.693560,-6699.903280,9054.440718
130.036259,1569.691626,-4900.500685,9054.440718
130.036882,976.271621,-2699.103893,9609.575562
130.037505,593.420005,-1722.832272,9839.286531
130.038129,535.992262,-899.701298,9934.999435
130.038752,1052.841944,-95.712904,9877.571693
130.039375,650.847747,1646.261949,9552.147819
130.039999,19.142581,3522.234867,9341.579430
130.040622,-459.421939,5589.633594,9667.003304
130.041245,-287.138712,7982.456194,10088.140082
130.041868,267.996131,10298.708470,10509.276859
130.042492,-172.283227,12480.962682,10643.274925
130.043115,248.853550,13706.087853,10413.563955
130.043738,842.273555,13725.230434,10068.997501
130.044362,593.420005,13380.663979,9858.429112
130.044985,650.847747,12825.529136,9245.866526
130.045608,-57.427742,11619.546546,8824.729749
130.046231,287.138712,10394.421374,8748.159426
130.046855,861.416136,8729.016845,9226.723946
130.047478,937.986459,7542.176835,10222.138147
130.048101,153.140646,6757.331022,10834.700733
130.048725,-57.427742,5130.211654,11083.554283
130.049348,-535.992262,3177.668413,10777.272990
130.049971,-746.560651,1473.978722,10164.710405
130.050594,-669.990328,-497.707101,9609.575562
130.051218,-1071.984525,-1895.115499,9571.290400
130.051841,-937.986459,-2775.674216,9743.573627
130.052464,-631.705166,-3751.945837,10107.282662
130.053087,287.138712,-5149.354235,10126.425243
130.053711,1971.685822,-7829.315547,9801.001370
130.054334,1990.828403,-10834.700733,9035.298138
130.054957,2124.826469,-13227.523333,8193.024582
130.055581,1493.121302,-14529.218827,8059.026517
130.056204,459.421939,-14012.369146,9111.868461
130.056827,38.285162,-12940.384621,10183.852986
130.057450,-631.705166,-11562.118803,11140.982026
130.058074,-1569.691626,-9781.858789,10892.128475
130.058697,-1014.556782,-8767.302006,9934.999435
130.059320,57.427742,-7944.171032,9188.438784
130.059944,1186.840010,-6508.477472,9054.440718
130.060567,1569.691626,-4900.500685,9188.438784
130.061190,899.701298,-2660.818731,9609.575562
130.061813,612.562586,-1531.406464,9896.714274
130.062437,574.277424,-612.562586,9973.284597
130.063060,1014.556782,210.568389,9934.999435
130.063683,555.134843,1761.117434,9705.288466
130.064307,-153.140646,3617.947771,9265.009107
130.064930,-516.849682,5761.916821,9590.432981
130.065553,-421.136778,8173.882002,10011.569758
130.066176,38.285162,10624.132344,10470.991698
130.066800,-248.853550,12882.956878,10681.560086
130.067423,172.283227,13993.226565,10413.563955
130.068046,1091.127106,13897.513661,10107.282662
130.068670,842.273555,13361.521398,9762.716208
130.069293,689.132909,12863.814298,9092.725880
130.069916,-19.142581,11332.407834,8729.016845
130.070540,325.423874,10011.569758,8920.442653
130.071163,689.132909,8518.448456,9322.436850
130.071786,823.130974,7599.604578,10241.280728
130.072410,153.140646,6776.473603,10872.985894
130.073033,-95.712904,5091.926493,11102.696864
130.073656,-421.136778,2986.242605,10643.274925
130.074280,-823.130974,1186.840010,10068.997501
130.074903,-880.558717,-784.845813,9609.575562
130.075527,-1052.841944,-2182.254211,9590.432981
130.076150,-861.416136,-2909.672282,9915.856854
130.076773,-325.423874,-3962.514226,10164.710405
130.077397,574.277424,-5474.778109,10126.425243
130.078020,2086.541307,-8154.739421,9667.003304
130.078643,1741.974853,-11006.983960,8805.587168
130.079267,1607.976787,-13476.376883,8116.454259
130.079890,1186.840010,-14778.072378,8059.026517
130.080513,459.421939,-14337.793019,9207.581365
130.081137,153.140646,-13016.954944,10298.708470
130.081760,-765.703232,-11313.265253,11179.267187
130.082384,-1665.404530,-9418.149754,10738.987829
130.083007,-976.271621,-8288.737486,9781.858789
130.083630,382.851616,-7791.030386,9169.296203
130.084254,1454.836141,-6393.621987,9111.868461
130.084877,1665.404530,-4689.932296,9265.009107
130.085500,650.847747,-2526.820666,9628.718142
130.086124,478.564520,-1435.693560,9992.427178
130.086747,708.275490,-593.420005,9934.999435
130.087371,1033.699363,344.566454,9896.714274
130.087994,516.849682,2124.826469,9513.862658
130.088617,-325.423874,4115.654872,9207.581365
130.089241,-708.275490,6336.194245,9609.575562
130.089864,-382.851616,8575.876198,10145.567824
130.090487,19.142581,11064.411702,10547.562021
130.091111,57.427742,12940.384621,10643.274925
130.091734,382.851616,13878.371080,10413.563955
130.092357,1033.699363,13859.228499,10011.569758
130.092981,708.275490,13227.523333,9609.575562
130.093604,191.425808,12748.958813,9131.011042
130.094228,-133.998066,11313.265253,8709.874264
130.094851,497.707101,9896.714274,8958.727814
130.095474,861.416136,8556.733618,9475.577496
130.096098,727.418070,7503.891674,10260.423309
130.096721,95.712904,6451.049730,10815.558152
130.097344,-210.568389,4594.219392,11121.839445
130.097968,-382.851616,2469.392923,10509.276859
130.098591,-957.129040,842.273555,10030.712339
130.099215,-746.560651,-1014.556782,9686.145885
130.099838,-957.129040,-2220.539373,9686.145885
130.100461,-899.701298,-2833.101958,9954.142016
130.101085,-306.281293,-3847.658741,10145.567824
130.101708,535.992262,-5570.491013,10068.997501
130.102331,1914.258080,-8652.446522,9590.432981
130.102955,1799.402595,-11849.257515,8709.874264
130.103578,1684.547110,-14242.080115,8059.026517
130.104202,1282.552914,-14950.355605,8173.882002
130.104825,421.136778,-14069.796888,9245.866526
130.105448,-19.142581,-12385.249778,10432.706536
130.106072,-918.843878,-10872.985894,11198.409768
130.106695,-1627.119368,-9169.296203,10719.845248
130.107318,-784.845813,-8422.735552,9705.288466
130.107942,574.277424,-7676.174901,9169.296203
130.108565,1339.980656,-6183.053598,9035.298138
130.109188,1493.121302,-4421.936165,9265.009107
130.109812,727.418070,-2431.107762,9628.718142
130.110435,593.420005,-1225.125171,10145.567824
130.111059,650.847747,-153.140646,9973.284597
130.111682,708.275490,803.988394,9877.571693
130.112305,267.996131,2526.820666,9552.147819
130.112929,-172.283227,4230.510357,9226.723946
130.113552,-344.566454,6451.049730,9628.718142
130.114175,0.000000,8901.300072,10183.852986
130.114799,-57.427742,11485.548480,10643.274925
130.115422,57.427742,13342.378818,10700.702667
130.116046,267.996131,14069.796888,10413.563955
130.116669,765.703232,13954.941403,10145.567824
130.117292,803.988394,13131.810429,9513.862658
130.117916,248.853550,12576.675586,9016.155557
130.118539,76.570323,10987.841379,8614.161360
130.119162,593.420005,9533.005238,8939.585234
130.119786,803.988394,8250.452325,9590.432981
130.120409,650.847747,7350.751027,10451.849117
130.121032,76.570323,6183.053598,10930.413637
130.121656,-421.136778,4594.219392,11006.983960
130.122279,-248.853550,2469.392923,10317.851051
130.122903,-708.275490,612.562586,9877.571693
130.123526,-727.418070,-1129.412267,9705.288466
130.124149,-995.414202,-2354.537438,9647.860723
130.124773,-995.414202,-3177.668413,9954.142016
130.125396,-344.566454,-4326.223261,10088.140082
130.126019,861.416136,-6412.764568,10049.854920
130.126643,1952.543242,-9341.579430,9552.147819
130.127266,1914.258080,-12212.966550,8556.733618
130.127890,1569.691626,-14165.509792,7963.313613
130.128513,1186.840010,-14644.074312,8269.594906
130.129136,363.709035,-13897.513661,9379.864592
130.129760,-210.568389,-12270.394293,10643.274925
130.130383,-1186.840010,-10738.987829,11160.124606
130.131006,-1607.976787,-9245.866526,10509.276859
130.131630,-631.705166,-8422.735552,9609.575562
130.132253,803.988394,-7523.034254,9131.011042
130.132877,1435.693560,-5838.487144,9035.298138
130.133500,1359.123237,-3962.514226,9360.722011
130.134123,574.277424,-2163.111630,9590.432981
130.134747,478.564520,-899.701298,10107.282662
130.135370,842.273555,-114.855485,10030.712339
130.135993,823.130974,1014.556782,9820.143950
130.136617,344.566454,2641.676150,9475.577496
130.137240,-133.998066,4536.791650,9284.151688
130.137863,-287.138712,6738.188442,9647.860723
130.138487,38.285162,9169.296203,10202.995566
130.139110,-421.136778,11849.257515,10643.274925
130.139734,-19.142581,13629.517530,10566.704602
130.140357,363.709035,14280.365277,10336.993632
130.140980,861.416136,14165.509792,10260.423309
130.141604,1052.841944,13361.521398,9399.007173
130.142227,133.998066,12385.249778,8977.870395
130.142850,153.140646,10585.847182,8595.018779
130.143474,612.562586,9035.298138,8920.442653
130.144097,861.416136,7771.887805,9667.003304
130.144721,440.279358,7178.467800,10604.989763
130.145344,95.712904,6068.198114,10987.841379
130.145967,-516.849682,4479.363907,11045.269122
130.146591,-325.423874,2392.822600,10375.278794
130.147214,-823.130974,248.853550,9628.718142
130.147837,-1052.841944,-1569.691626,9494.720077
130.148461,-880.558717,-2813.959378,9552.147819
130.149084,-880.558717,-3694.518094,10068.997501
130.149707,-76.570323,-4728.217458,10336.993632
130.150331,1378.265818,-6872.186507,10030.712339
130.150954,1933.400661,-9590.432981,9437.292334
130.151578,1952.543242,-12385.249778,8346.165229
130.152201,1550.549045,-14299.507858,7810.172966
130.152824,1129.412267,-14624.931731,8480.163294
130.153448,306.281293,-13840.085918,9609.575562
130.154071,-421.136778,-12251.251712,10853.843314
130.154694,-1473.978722,-10509.276859,11121.839445
130.155318,-1473.978722,-8997.012976,10470.991698
130.155941,-229.710970,-8269.594906,9437.292334
130.156565,1225.125171,-7274.180704,9150.153622
130.157188,1665.404530,-5455.635528,9073.583299
130.157811,995.414202,-3254.238736,9513.862658
130.158435,325.423874,-1837.687757,9705.288466
130.159058,555.134843,-861.416136,10088.140082
130.159681,1167.697429,-306.281293,10145.567824
130.160305,918.843878,1167.697429,9686.145885
130.160928,38.285162,2909.672282,9341.579430
130.161552,-401.994197,5149.354235,9284.151688
130.162175,-478.564520,7599.604578,9647.860723
130.162798,76.570323,10107.282662,10279.565890
130.163422,-325.423874,12691.531070,10624.132344
130.164045,267.996131,14050.654307,10566.704602
130.164668,784.845813,14242.080115,10279.565890
130.165292,708.275490,13667.802691,10126.425243
130.165915,823.130974,12882.956878,9379.864592
130.166538,-153.140646,11810.972354,8863.014910
130.167162,210.568389,10413.563955,8595.018779
130.167785,689.132909,9188.438784,8977.870395
130.168409,976.271621,8135.596840,9858.429112
130.169032,306.281293,7446.463931,10853.843314
130.169655,172.283227,5666.203917,11083.554283
130.170279,-459.421939,3617.947771,10930.413637
130.170902,-574.277424,1531.406464,10202.995566
130.171525,-880.558717,-478.564520,9552.147819
130.172148,-1129.412267,-1990.828403,9667.003304
130.172772,-784.845813,-2909.672282,9820.143950
130.173395,-689.132909,-3560.520029,10164.710405
130.174018,153.140646,-4689.932296,10279.565890
130.174642,1550.549045,-7216.752962,10011.569758
130.175265,1646.261949,-10375.278794,9303.294269
130.175888,1837.687757,-13246.665914,8173.882002
130.176512,1473.978722,-15122.638832,7848.458128
130.177135,784.845813,-14701.502054,8690.731683
130.177758,210.568389,-13533.804626,9915.856854
130.178382,-555.134843,-11753.544611,10968.698798
130.179005,-1550.549045,-9896.714274,11026.126541
130.179628,-1148.554848,-8786.444587,10222.138147
130.180251,114.855485,-8097.311678,9341.579430
130.180875,1205.982590,-6795.616184,9092.725880
130.181498,1493.121302,-5149.354235,9016.155557
130.182121,784.845813,-3005.385186,9533.005238
130.182745,401.994197,-1741.974853,9877.571693
130.183368,650.847747,-823.130974,9992.427178
130.183991,1071.984525,191.425808,10049.854920
130.184615,650.847747,1895.115499,9667.003304
130.185238,19.142581,3675.375514,9322.436850
130.185861,-401.994197,5819.344563,9418.149754
130.186485,-267.996131,8193.024582,9858.429112
130.187108,267.996131,10490.134278,10336.993632
130.187731,-172.283227,12787.243974,10585.847182
130.188355,133.998066,14146.367211,10470.991698
130.188978,765.703232,14146.367211,10241.280728
130.189601,612.562586,13648.660110,10068.997501
130.190224,593.420005,12921.242040,9284.151688
130.190848,-210.568389,11562.118803,8843.872330
130.191471,248.853550,10126.425243,8652.446522
130.192094,784.845813,8786.444587,9111.868461
130.192718,880.558717,7752.745224,10011.569758
130.193341,114.855485,7006.184573,10853.843314
130.193964,-172.283227,5283.352301,11217.552349
130.194588,-344.566454,3177.668413,10738.987829
130.195211,-593.420005,1205.982590,10126.425243
130.195834,-555.134843,-957.129040,9513.862658
130.196458,-1071.984525,-2277.967115,9533.005238
130.197081,-995.414202,-2928.814862,9781.858789
130.197704,-727.418070,-3847.658741,10183.852986
130.198327,153.140646,-5340.780043,10356.136213
130.198951,1837.687757,-8097.311678,9839.286531
130.199574,1875.972918,-11313.265253,9016.155557
130.200197,1952.543242,-13686.945272,8039.883936
130.200821,1512.263883,-14931.213024,7810.172966
130.201444,497.707101,-14280.365277,8901.300072
130.202067,114.855485,-12940.384621,10088.140082
130.202691,-765.703232,-11447.263318,11121.839445
130.203314,-1607.976787,-9705.288466,10911.271056
130.203937,-899.701298,-8690.731683,9934.999435
130.204561,344.566454,-7886.743290,9226.723946
130.205184,1320.838075,-6508.477472,8977.870395
130.205807,1454.836141,-4728.217458,9111.868461
130.206430,650.847747,-2641.676150,9513.862658
130.207054,459.421939,-1435.693560,10068.997501
130.207677,689.132909,-363.709035,10088.140082
130.208300,1014.556782,631.705166,10030.712339
130.208924,612.562586,2143.969050,9552.147819
130.209547,0.000000,4000.799387,9111.868461
130.210170,-497.707101,6163.911018,9399.007173
130.210794,-153.140646,8595.018779,9973.284597
130.211417,-19.142581,11179.267187,10451.849117
130.212040,-114.855485,13265.808494,10643.274925
130.212664,172.283227,14337.793019,10547.562021
130.213287,899.701298,14280.365277,10279.565890
130.213910,861.416136,13552.947206,9820.143950
130.214533,363.709035,12863.814298,9131.011042
130.215157,-19.142581,11255.837510,8556.733618
130.215780,555.134843,9647.860723,8767.302006
130.216403,880.558717,8499.305875,9399.007173
130.217027,765.703232,7542.176835,10298.708470
130.217650,153.140646,6585.047795,10911.271056
130.218273,-401.994197,4881.358104,11179.267187
130.218897,-363.709035,2679.961312,10509.276859
130.219520,-861.416136,746.560651,9877.571693
130.220143,-727.418070,-1205.982590,9571.290400
130.220767,-976.271621,-2411.965181,9571.290400
130.221390,-995.414202,-3158.525832,10068.997501
130.222013,-363.709035,-4096.512291,10336.993632
130.222636,612.562586,-6106.483275,10298.708470
130.223260,1914.258080,-9073.583299,9667.003304
130.223883,1875.972918,-12193.823970,8556.733618
130.224506,1646.261949,-14203.794954,7886.743290
130.225130,1301.695494,-14873.785282,8020.741355
130.225753,382.851616,-14088.939469,9207.581365
130.226376,-95.712904,-12500.105262,10413.563955
130.227000,-1091.127106,-10949.556218,11102.696864
130.227623,-1531.406464,-9418.149754,10547.562021
130.228246,-574.277424,-8595.018779,9705.288466
130.228870,861.416136,-7810.172966,9188.438784
130.229493,1416.550979,-6125.625856,9054.440718
130.230116,1320.838075,-4173.082614,9418.149754
130.230739,497.707101,-2124.826469,9667.003304
130.231363,306.281293,-957.129040,10088.140082
130.231986,784.845813,-153.140646,10049.854920
130.232609,880.558717,899.701298,9762.716208
130.233233,421.136778,2679.961312,9437.292334
130.233856,-172.283227,4632.504554,9207.581365
130.234479,-440.279358,6948.756830,9533.005238
130.235103,153.140646,9265.009107,10183.852986
130.235726,-114.855485,12002.398162,10509.276859
130.236349,191.425808,13782.658176,10566.704602
130.236973,191.425808,14490.933666,10470.991698
130.237596,727.418070,14242.080115,10241.280728
130.238219,842.273555,13189.238171,9552.147819
130.238842,19.142581,12404.392358,9150.153622
130.239466,114.855485,10853.843314,8595.018779
130.240089,708.275490,9437.292334,8920.442653
130.240712,995.414202,8250.452325,9609.575562
130.241336,516.849682,7408.178770,10528.419440
130.241959,114.855485,6125.625856,10949.556218
130.242582,-440.279358,4230.510357,11006.983960
130.243206,-248.853550,2086.541307,10298.708470
130.243829,-746.560651,95.712904,9686.145885
130.244452,-937.986459,-1607.976787,9628.718142
130.245076,-1052.841944,-2679.961312,9686.145885
130.245699,-1033.699363,-3445.664544,10164.710405
130.246322,-344.566454,-4632.504554,10375.278794
130.246946,957.129040,-6948.756830,10202.995566
130.247569,1722.832272,-9915.856854,9513.862658
130.248192,1990.828403,-12921.242040,8384.450390
130.248815,1627.119368,-14720.644635,7771.887805
130.249439,1091.127106,-14758.929797,8288.737486
130.250062,191.425808,-13820.943338,9494.720077
130.250685,-421.136778,-12136.396227,10681.560086
130.251309,-1493.121302,-10394.421374,11064.411702
130.251932,-1205.982590,-9207.581365,10470.991698
130.252555,-153.140646,-8365.307810,9609.575562
130.253179,1052.841944,-7274.180704,9226.723946
130.253802,1244.267752,-5551.348432,9016.155557
130.254425,918.843878,-3464.807125,9533.005238
130.255049,421.136778,-1933.400661,9801.001370
130.255672,459.421939,-823.130974,10107.282662
130.256295,1014.556782,153.140646,10107.282662
130.256918,861.416136,1665.404530,9686.145885
130.257542,248.853550,3349.951640,9399.007173
130.258165,-153.140646,5321.637462,9245.866526
130.258788,-210.568389,7695.317482,9590.432981
130.259412,248.853550,10164.710405,10126.425243
130.260035,-382.851616,12653.245909,10604.989763
130.260658,-76.570323,14184.652373,10566.704602
130.261282,421.136778,14280.365277,10470.991698
130.261905,669.990328,13935.798822,10279.565890
130.262528,861.416136,13112.667848,9456.434915
130.263152,-229.710970,11964.113000,8901.300072
130.263775,248.853550,10451.849117,8652.446522
130.264398,842.273555,9035.298138,8977.870395
130.265021,1052.841944,7886.743290,9858.429112
130.265645,267.996131,7255.038123,10738.987829
130.266268,-114.855485,5608.776174,11217.552349
130.266891,-650.847747,3503.092286,10815.558152
130.267515,-516.849682,1416.550979,10145.567824
130.268138,-459.421939,-650.847747,9533.005238
130.268761,-918.843878,-1952.543242,9552.147819
130.269385,-937.986459,-2699.103893,9820.143950
130.270008,-880.558717,-3732.803256,10375.278794
130.270631,-95.712904,-5206.781978,10547.562021
130.271255,1531.406464,-7944.171032,10030.712339
130.271878,1722.832272,-11198.409768,9188.438784
130.272501,1952.543242,-13629.517530,8020.741355
130.273125,1627.119368,-15007.783347,7618.747158
130.273748,746.560651,-14337.793019,8690.731683
130.274372,191.425808,-13150.953010,9858.429112
130.274995,-689.132909,-11581.261384,10930.413637
130.275618,-1569.691626,-9954.142016,10892.128475
130.276242,-918.843878,-9150.153622,10126.425243
130.276865,153.140646,-8269.594906,9303.294269
130.277488,1148.554848,-6872.186507,9188.438784
130.278112,1397.408398,-5053.641331,9169.296203
130.278735,669.990328,-2737.389054,9647.860723
130.279358,459.421939,-1416.550979,10011.569758
130.279982,650.847747,-440.279358,10107.282662
130.280605,995.414202,555.134843,10107.282662
130.281229,612.562586,2086.541307,9609.575562
130.281852,0.000000,3751.945837,9054.440718
130.282475,-382.851616,5934.200048,9284.151688
130.283099,-172.283227,8480.163294,9801.001370
130.283722,267.996131,10968.698798,10394.421374
130.284345,-248.853550,13361.521398,10662.417506
130.284969,-95.712904,14586.646570,10509.276859
130.285592,727.418070,14510.076246,10375.278794
130.286215,746.560651,13725.230434,10145.567824
130.286839,535.992262,12863.814298,9379.864592
130.287462,-153.140646,11217.552349,8767.302006
130.288086,421.136778,9705.288466,8805.587168
130.288709,861.416136,8518.448456,9265.009107
130.289332,880.558717,7657.032320,10068.997501
130.289956,153.140646,7006.184573,10777.272990
130.290579,-287.138712,5340.780043,11236.694930
130.291202,-325.423874,3043.670347,10585.847182
130.291826,-803.988394,880.558717,10030.712339
130.292449,-669.990328,-1378.265818,9533.005238
130.293072,-976.271621,-2756.531635,9552.147819
130.293696,-765.703232,-3426.521963,9877.571693
130.294319,-325.423874,-4211.367776,10375.278794
130.294943,363.709035,-5819.344563,10470.991698
130.295566,1703.689691,-8556.733618,9954.142016
130.296189,1607.976787,-11849.257515,8863.014910
130.296813,1684.547110,-14203.794954,7867.600709
130.297436,1512.263883,-15256.636898,7791.030386
130.298059,516.849682,-14395.220762,8958.727814
130.298683,-95.712904,-12768.101394,10222.138147
130.299306,-1052.841944,-11083.554283,11064.411702
130.299929,-1665.404530,-9552.147819,10738.987829
130.300553,-650.847747,-8671.589102,9973.284597
130.301176,976.271621,-7829.315547,9226.723946
130.301800,1550.549045,-6259.623922,9035.298138
130.302423,1225.125171,-4211.367776,9245.866526
130.303046,210.568389,-2239.681954,9667.003304
130.303670,38.285162,-1110.269686,10222.138147
130.304293,727.418070,-267.996131,10068.997501
130.304916,1052.841944,784.845813,9839.286531
130.305540,497.707101,2622.533570,9494.720077
130.306163,-153.140646,4517.649069,9073.583299
130.306786,-363.709035,6853.043926,9360.722011
130.307410,172.283227,9418.149754,9973.284597
130.308033,-57.427742,12117.253646,10413.563955
130.308657,172.283227,13993.226565,10681.560086
130.309280,306.281293,14471.791085,10566.704602
130.309903,823.130974,14088.939469,10336.993632
130.310527,861.416136,13208.380752,9743.573627
130.311150,-153.140646,12461.820101,9207.581365
130.311773,-76.570323,10892.128475,8633.303941
130.312397,612.562586,9494.720077,8805.587168
130.313020,918.843878,8461.020714,9533.005238
130.313643,535.992262,7618.747158,10451.849117
130.314267,210.568389,6393.621987,10968.698798
130.314890,-401.994197,4383.651003,11045.269122
130.315514,-267.996131,2124.826469,10336.993632
130.316137,-708.275490,57.427742,9571.290400
130.316760,-937.986459,-1741.974853,9533.005238
130.317384,-880.558717,-2833.101958,9590.432981
130.318007,-957.129040,-3598.805190,10183.852986
130.318630,-459.421939,-4613.361973,10413.563955
130.319254,957.129040,-6833.901346,10260.423309
130.319877,1684.547110,-9820.143950,9647.860723
130.320500,1971.685822,-12978.669782,8346.165229
130.321124,1607.976787,-14854.642701,7752.745224
130.321747,1091.127106,-14873.785282,8173.882002
130.322371,267.996131,-13954.941403,9399.007173
130.322994,-363.709035,-12270.394293,10604.989763
130.323617,-1416.550979,-10528.419440,11026.126541
130.324241,-1110.269686,-9379.864592,10413.563955
130.324864,-153.140646,-8461.020714,9590.432981
130.325487,1033.699363,-7293.323285,9303.294269
130.326111,1320.838075,-5455.635528,9016.155557
130.326734,727.418070,-3426.521963,9533.005238
130.327357,267.996131,-1933.400661,9801.001370
130.327981,401.994197,-899.701298,10164.710405
130.328604,1014.556782,-19.142581,10164.710405
130.329228,842.273555,1588.834206,9686.145885
130.329851,248.853550,3273.381317,9303.294269
130.330474,-248.853550,5474.778109,9188.438784
130.331098,-287.138712,7905.885870,9513.862658
130.331721,401.994197,10394.421374,10126.425243
130.332344,-229.710970,12844.671717,10585.847182
130.332968,114.855485,14414.363342,10604.989763
130.333591,612.562586,14414.363342,10470.991698
130.334214,669.990328,13878.371080,10336.993632
130.334838,746.560651,12997.812363,9475.577496
130.335461,-382.851616,11964.113000,8997.012976
130.336085,191.425808,10394.421374,8671.589102
130.336708,803.988394,9169.296203,9035.298138
130.337331,1091.127106,8097.311678,9858.429112
130.337955,325.423874,7350.751027,10758.130410
130.338578,-19.142581,5608.776174,11045.269122
