#time,accel_x,accel_y,accel_z
76.666231,267.996131,210.568389,9762.716208
76.666854,267.996131,153.140646,9762.716208
76.667477,229.710970,210.568389,9820.143950
76.668101,191.425808,210.568389,9781.858789
76.668724,267.996131,248.853550,9743.573627
76.669347,210.568389,248.853550,9820.143950
76.669970,267.996131,267.996131,9801.001370
76.670593,248.853550,153.140646,9801.001370
76.671216,248.853550,248.853550,9820.143950
76.671839,248.853550,210.568389,9762.716208
76.672462,248.853550,248.853550,9762.716208
76.673086,267.996131,248.853550,9801.001370
76.673709,267.996131,191.425808,9801.001370
76.674331,267.996131,229.710970,9743.573627
76.674954,248.853550,210.568389,9820.143950
76.675577,248.853550,210.568389,9801.001370
76.676200,325.423874,287.138712,9781.858789
76.676822,267.996131,191.425808,9743.573627
76.677445,191.425808,248.853550,9762.716208
76.678068,210.568389,210.568389,9801.001370
76.678690,267.996131,210.568389,9762.716208
76.679313,267.996131,248.853550,9801.001370
76.679936,267.996131,153.140646,9705.288466
76.680559,229.710970,287.138712,9686.145885
76.681181,248.853550,248.853550,9743.573627
76.681804,248.853550,248.853550,9762.716208
76.682427,287.138712,229.710970,9705.288466
76.683050,267.996131,153.140646,9762.716208
76.683672,325.423874,191.425808,9743.573627
76.684295,267.996131,248.853550,9801.001370
76.684918,191.425808,248.853550,9801.001370
76.685540,267.996131,153.140646,9801.001370
76.686163,325.423874,191.425808,9743.573627
76.686786,267.996131,153.140646,9801.001370
76.687409,325.423874,229.710970,9743.573627
76.688031,344.566454,248.853550,9743.573627
76.688654,1320.838075,114.855485,9667.003304
76.689277,2813.959378,-267.996131,9934.999435
76.689900,4058.227130,-229.710970,10126.425243
76.690522,5398.207786,-287.138712,9915.856854
76.691145,5972.485210,401.994197,9667.003304
76.691768,6527.620053,1033.699363,9226.723946
76.692390,6585.047795,1550.549045,9092.725880
76.693013,5685.346498,1741.974853,9590.432981
76.693636,4498.506488,1550.549045,9743.573627
76.694259,2297.109696,880.558717,9820.143950
76.694881,325.423874,172.283227,9877.571693
76.695504,-1397.408398,-382.851616,9667.003304
76.696127,-2526.820666,-689.132909,9801.001370
76.696749,-3235.096155,-325.423874,9954.142016
76.697372,-4000.799387,95.712904,10432.706536
76.697995,-5436.492947,803.988394,10987.841379
76.698618,-5742.774240,765.703232,10547.562021
76.699240,-5666.203917,325.423874,10298.708470
76.699863,-6125.625856,-497.707101,10011.569758
76.700486,-7369.893608,-1071.984525,9533.005238
76.701109,-8480.163294,-1569.691626,9016.155557
76.701731,-8977.870395,-1091.127106,8767.302006
76.702354,-9035.298138,-95.712904,8633.303941
76.702977,-8480.163294,497.707101,9456.434915
76.703599,-7867.600709,746.560651,10107.282662
76.704222,-6144.768437,363.709035,9456.434915
76.704845,-4919.643266,-229.710970,9188.438784
76.705468,-3081.955509,-899.701298,9494.720077
76.706090,-38.285162,-1110.269686,9877.571693
76.706713,3388.236802,-727.418070,10413.563955
76.707336,7101.897477,-38.285162,10413.563955
76.707958,9762.716208,727.418070,10107.282662
76.708581,10987.841379,1454.836141,10126.425243
76.709204,11523.833642,1473.978722,9533.005238
76.709827,10126.425243,1397.408398,9188.438784
76.710449,8595.018779,1014.556782,8863.014910
76.711072,7637.889739,803.988394,8824.729749
76.711695,6317.051664,1186.840010,9877.571693
76.712318,5455.635528,1856.830338,10317.851051
76.712940,3483.949706,2373.680019,10528.419440
76.713563,2679.961312,1569.691626,10528.419440
76.714186,2967.100024,-191.425808,10738.987829
76.714808,3579.662610,-1320.838075,10624.132344
76.715431,4192.225195,-1952.543242,10241.280728
76.716054,3828.516160,-1110.269686,9973.284597
76.716677,3560.520029,38.285162,9533.005238
76.717299,2584.248408,823.130974,9418.149754
76.717922,880.558717,1110.269686,9590.432981
76.718545,-842.273555,689.132909,9092.725880
76.719167,-3522.234867,0.000000,8556.733618
76.719790,-5723.631659,-708.275490,8499.305875
76.720413,-7197.610381,-1091.127106,8939.585234
76.721036,-7216.752962,-1263.410333,9915.856854
76.721658,-5761.916821,-765.703232,10585.847182
76.722281,-4307.080680,19.142581,11198.409768
76.722904,-3713.660675,784.845813,11255.837510
76.723527,-2928.814862,899.701298,10451.849117
76.724149,-1665.404530,497.707101,9896.714274
76.724772,-382.851616,-267.996131,9399.007173
76.725395,-995.414202,-248.853550,9111.868461
76.726017,-2163.111630,-191.425808,8843.872330
76.726640,-3388.236802,191.425808,8767.302006
76.727263,-4441.078746,765.703232,8767.302006
76.727886,-5283.352301,1091.127106,9437.292334
76.728508,-6087.340694,1091.127106,10145.567824
76.729131,-5685.346498,765.703232,9954.142016
76.729754,-5608.776174,344.566454,10164.710405
76.730377,-4709.074877,-363.709035,10547.562021
76.730999,-3024.527766,-612.562586,10949.556218
76.731622,-516.849682,-593.420005,11217.552349
76.732245,2507.678085,-325.423874,10681.560086
76.732867,4862.215523,229.710970,9839.286531
76.733490,6336.194245,918.843878,9092.725880
76.734113,7484.749093,803.988394,8193.024582
76.734736,7006.184573,1014.556782,7886.743290
76.735358,6317.051664,612.562586,7905.885870
76.735981,5838.487144,421.136778,8403.592971
76.736604,5723.631659,535.992262,9647.860723
76.737226,5895.914886,784.845813,10298.708470
76.737849,4843.072942,1397.408398,10968.698798
76.738472,4747.360038,1071.984525,10987.841379
76.739095,5359.922624,-153.140646,11351.550414
76.739717,6604.190376,-1129.412267,11217.552349
76.740340,7637.889739,-1780.260014,10547.562021
76.740963,7446.463931,-1014.556782,9973.284597
76.741586,7006.184573,191.425808,9284.151688
76.742208,5742.774240,1359.123237,8997.012976
76.742831,3943.371645,1684.547110,9150.153622
76.743454,1646.261949,1320.838075,8863.014910
76.744076,-1473.978722,421.136778,8671.589102
76.744699,-4689.932296,-344.566454,8824.729749
76.745322,-7542.176835,-727.418070,9418.149754
76.745945,-8901.300072,-727.418070,10604.989763
76.746567,-8575.876198,-267.996131,11389.835576
76.747190,-7944.171032,401.994197,12212.966550
76.747813,-7465.606512,995.414202,11964.113000
76.748435,-6776.473603,1033.699363,10624.132344
76.749058,-5283.352301,574.277424,9399.007173
76.749681,-3522.234867,-440.279358,8422.735552
76.750304,-3120.240670,-593.420005,8059.026517
76.750926,-3139.383251,-669.990328,8001.598774
76.751549,-3771.088418,-153.140646,8020.741355
76.752172,-4230.510357,440.279358,8078.169098
76.752795,-4536.791650,669.990328,8939.585234
76.753417,-4747.360038,459.421939,9839.286531
76.754040,-4019.941968,133.998066,9934.999435
76.754663,-3924.229064,-95.712904,10317.851051
76.755285,-3005.385186,-440.279358,10911.271056
76.755908,-1550.549045,-459.421939,11504.691061
76.756531,937.986459,-574.277424,11715.259450
76.757154,4192.225195,-325.423874,10968.698798
76.757776,6680.760699,153.140646,9647.860723
76.758399,7963.313613,1091.127106,8690.731683
76.759022,8595.018779,1244.267752,7829.315547
76.759645,7580.461997,1627.119368,7752.745224
76.760267,6585.047795,1110.269686,7982.456194
76.760890,5666.203917,727.418070,8939.585234
76.761513,4977.071008,669.990328,10164.710405
76.762135,4747.360038,842.273555,10853.843314
76.762758,3292.523898,1512.263883,11638.689126
76.763381,2986.242605,1282.552914,11638.689126
76.764004,3388.236802,-38.285162,11983.255581
76.764626,4728.217458,-1071.984525,11542.976222
76.765249,6106.483275,-1914.258080,10815.558152
76.765872,6680.760699,-1359.123237,9801.001370
76.766494,6967.899411,-172.283227,8729.016845
76.767117,6163.911018,1091.127106,8173.882002
76.767740,4804.787781,1569.691626,8173.882002
76.768363,2775.674216,1512.263883,8078.169098
76.768985,-516.849682,650.847747,8001.598774
76.769608,-3598.805190,-325.423874,8269.594906
76.770231,-6508.477472,-937.986459,9111.868461
76.770854,-7944.171032,-1091.127106,10432.706536
76.771476,-7905.885870,-574.277424,11466.405899
76.772099,-7657.032320,363.709035,12500.105262
76.772722,-7293.323285,1110.269686,12366.107197
76.773344,-6891.329088,1225.125171,10968.698798
76.773978,-5570.491013,842.273555,9571.290400
76.774601,-3751.945837,-421.136778,8384.450390
76.775225,-3483.949706,-708.275490,8059.026517
76.775848,-3445.664544,-957.129040,7944.171032
76.776471,-4192.225195,-325.423874,8307.880067
76.777094,-4632.504554,287.138712,8269.594906
76.777718,-5130.211654,899.701298,9226.723946
76.778341,-5474.778109,708.275490,10107.282662
76.778964,-4728.217458,363.709035,10260.423309
76.779587,-4460.221326,-38.285162,10738.987829
76.780211,-3464.807125,-555.134843,11313.265253
76.780834,-1875.972918,-612.562586,11868.400096
76.781457,1014.556782,-631.705166,11906.685258
76.782080,4517.649069,-421.136778,10987.841379
76.782704,7408.178770,133.998066,9609.575562
76.783327,8997.012976,957.129040,8346.165229
76.783950,9743.573627,1071.984525,7312.465866
76.784573,8690.731683,1473.978722,7140.182638
76.785197,7657.032320,957.129040,7484.749093
76.785820,6470.192310,631.705166,8595.018779
76.786443,5685.346498,669.990328,9992.427178
76.787066,4900.500685,918.843878,10777.272990
76.787690,2718.246474,1588.834206,11581.261384
76.788313,2048.256146,1359.123237,11715.259450
76.788936,2545.963246,-38.285162,11925.827838
76.789559,3943.371645,-1014.556782,11619.546546
76.790183,5340.780043,-1722.832272,10815.558152
76.790806,5876.772306,-1205.982590,9762.716208
76.791429,6336.194245,-19.142581,8633.303941
76.792053,5474.778109,1129.412267,8135.596840
76.792676,4345.365842,1531.406464,8078.169098
76.793299,2603.390989,1454.836141,8001.598774
76.793922,-440.279358,784.845813,8097.311678
76.794546,-3541.377448,-191.425808,8556.733618
76.795169,-6546.762634,-823.130974,9590.432981
76.795792,-7810.172966,-1186.840010,11045.269122
76.796415,-7657.032320,-957.129040,12117.253646
76.797039,-7216.752962,57.427742,12844.671717
76.797662,-6910.471669,861.416136,12576.675586
76.798285,-6393.621987,1033.699363,11160.124606
76.798908,-4881.358104,689.132909,9609.575562
76.799532,-3024.527766,-344.566454,8346.165229
76.800155,-2565.105827,-631.705166,7733.602643
76.800778,-2507.678085,-861.416136,7427.321350
76.801401,-3656.232933,-248.853550,7618.747158
76.802025,-4460.221326,287.138712,7733.602643
76.802648,-5379.065205,861.416136,8729.016845
76.803271,-6010.770371,803.988394,9801.001370
76.803894,-5513.063270,593.420005,10145.567824
76.804518,-5264.209720,287.138712,10585.847182
76.805141,-4441.078746,-229.710970,11389.835576
76.805764,-2909.672282,-421.136778,12021.540742
76.806387,95.712904,-612.562586,12155.538808
76.807011,3847.658741,-459.421939,11217.552349
76.807634,7178.467800,-19.142581,9724.431046
76.808257,9111.868461,918.843878,8403.592971
76.808880,9973.284597,1110.269686,7446.463931
76.809504,9016.155557,1607.976787,7369.893608
76.810127,8001.598774,1225.125171,7657.032320
76.810750,6929.614250,784.845813,8824.729749
76.811374,6278.766502,669.990328,10126.425243
76.811997,5647.061336,937.986459,11006.983960
76.812620,3464.807125,1454.836141,11868.400096
76.813243,2641.676150,1225.125171,12002.398162
76.813867,2947.957443,-153.140646,12155.538808
76.814490,4345.365842,-1167.697429,11676.974288
76.815113,5704.489078,-1895.115499,10738.987829
76.815736,6221.338760,-1320.838075,9590.432981
76.816360,6393.621987,-133.998066,8461.020714
76.816983,5417.350366,1148.554848,7886.743290
76.817606,4000.799387,1627.119368,7791.030386
76.818229,2201.396792,1320.838075,7695.317482
76.818853,-1052.841944,535.992262,7733.602643
76.819476,-4364.508422,-287.138712,8269.594906
76.820099,-7465.606512,-899.701298,9379.864592
76.820722,-8863.014910,-1071.984525,10987.841379
76.821346,-8575.876198,-669.990328,12251.251712
76.821969,-7771.887805,287.138712,13016.954944
76.822592,-7197.610381,1129.412267,12710.673651
76.823215,-6929.614250,1320.838075,11236.694930
76.823839,-6240.481341,976.271621,9724.431046
76.824462,-3522.234867,-229.710970,8059.026517
76.825085,-1186.840010,-382.851616,7427.321350
76.825708,-114.855485,76.570323,7542.176835
76.826332,-1607.976787,650.847747,8212.167163
76.826955,-3713.660675,497.707101,8422.735552
76.827578,-5245.067139,-210.568389,8958.727814
76.828201,-5704.489078,-746.560651,9341.579430
76.828825,-4938.785846,-555.134843,9743.573627
76.829448,-4670.789715,191.425808,10815.558152
76.830071,-4019.941968,421.136778,12040.683323
76.830695,-2679.961312,363.709035,12844.671717
76.831318,-191.425808,-459.421939,12710.673651
76.831941,3694.518094,-1129.412267,11198.409768
76.832564,7235.895542,-1359.123237,9111.868461
76.833188,9226.723946,-382.851616,7446.463931
76.833811,9379.864592,727.418070,6585.047795
76.834434,7752.745224,2277.967115,7274.180704
76.835057,6585.047795,2488.535504,8231.309744
76.835681,6125.625856,1837.687757,9131.011042
76.836304,6029.912952,1225.125171,9743.573627
76.836927,5245.067139,765.703232,9954.142016
76.837550,2641.676150,995.414202,10911.271056
76.838174,1665.404530,574.277424,11849.257515
76.838797,2258.824534,-210.568389,12997.812363
76.839420,4249.652938,-823.130974,12672.388490
76.840043,6393.621987,-1186.840010,11294.122672
76.840667,7082.754896,-689.132909,9609.575562
76.841290,7178.467800,0.000000,8059.026517
76.841913,5953.342629,899.701298,7427.321350
76.842536,4383.651003,1378.265818,7637.889739
76.843160,2756.531635,1244.267752,7829.315547
76.843783,-19.142581,325.423874,8173.882002
76.844406,-3311.666478,-650.847747,8729.016845
76.845029,-6738.188442,-1071.984525,9609.575562
76.845653,-8633.303941,-1129.412267,10892.128475
76.846276,-8901.300072,-555.134843,12021.540742
76.846899,-8518.448456,325.423874,12978.669782
76.847523,-7867.600709,1014.556782,12902.099459
76.848146,-7331.608446,1071.984525,11581.261384
76.848769,-6699.903280,823.130974,9877.571693
76.849392,-3847.658741,-421.136778,8097.311678
76.850016,-1416.550979,-784.845813,7274.180704
76.850639,-497.707101,-267.996131,7235.895542
76.851262,-2029.113565,555.134843,7714.460062
76.851885,-4230.510357,689.132909,8001.598774
76.852509,-5647.061336,229.710970,8614.161360
76.853132,-6010.770371,-382.851616,9284.151688
76.853755,-4862.215523,-440.279358,9781.858789
76.854378,-4383.651003,133.998066,11026.126541
76.855002,-3790.230998,363.709035,12232.109131
76.855625,-2545.963246,555.134843,12882.956878
76.856248,-57.427742,-38.285162,12710.673651
76.856871,4096.512291,-765.703232,11274.980091
76.857495,8135.596840,-1225.125171,9265.009107
76.858118,10202.995566,-497.707101,7523.034254
76.858741,10279.565890,669.990328,6527.620053
76.859364,8250.452325,2258.824534,7140.182638
76.859988,6680.760699,2488.535504,8231.309744
76.860611,6336.194245,1684.547110,9226.723946
76.861234,6029.912952,1186.840010,9781.858789
76.861857,5111.069074,823.130974,10030.712339
76.862481,2201.396792,995.414202,10968.698798
76.863104,1148.554848,497.707101,12002.398162
76.863727,1799.402595,-478.564520,13284.951075
76.864350,3732.803256,-1014.556782,12921.242040
76.864974,5781.059402,-1167.697429,11332.407834
76.865597,6565.905214,-727.418070,9494.720077
76.866220,6719.045861,133.998066,7867.600709
76.866844,5742.774240,1014.556782,7063.612315
76.867467,4345.365842,1454.836141,7255.038123
76.868090,2813.959378,1225.125171,7523.034254
76.868713,38.285162,363.709035,8020.741355
76.869337,-3254.238736,-516.849682,8709.874264
76.869960,-6661.618118,-957.129040,9590.432981
76.870583,-8614.161360,-1033.699363,10968.698798
76.871206,-8575.876198,-478.564520,12040.683323
76.871830,-7905.885870,306.281293,13036.097525
76.872453,-7389.036189,1129.412267,12978.669782
76.873076,-6872.186507,1205.982590,11657.831707
76.873699,-6240.481341,803.988394,9992.427178
76.874323,-3426.521963,-440.279358,8269.594906
76.874946,-1091.127106,-765.703232,7293.323285
76.875569,-478.564520,-19.142581,7121.040058
76.876192,-2163.111630,516.849682,7599.604578
76.876816,-4441.078746,612.562586,7829.315547
76.877439,-5838.487144,76.570323,8556.733618
76.878062,-6412.764568,-325.423874,9437.292334
76.878685,-5302.494882,-287.138712,10030.712339
76.879309,-4900.500685,153.140646,11236.694930
76.879932,-4173.082614,248.853550,12461.820101
76.880555,-2737.389054,153.140646,12997.812363
76.881179,-191.425808,-229.710970,12710.673651
76.881802,3981.656806,-937.986459,11179.267187
76.882425,7925.028451,-1263.410333,8997.012976
76.883049,10107.282662,-325.423874,7389.036189
76.883672,10279.565890,880.558717,6412.764568
76.884295,8288.737486,2392.822600,7025.327154
76.884919,6872.186507,2584.248408,8193.024582
76.885542,6738.188442,1646.261949,9035.298138
76.886165,6393.621987,1052.841944,9667.003304
76.886789,5436.492947,784.845813,9915.856854
76.887412,2641.676150,918.843878,10968.698798
76.888035,1454.836141,478.564520,12193.823970
76.888658,2029.113565,-401.994197,13399.806560
76.889282,3885.943902,-861.416136,13131.810429
76.889905,5972.485210,-1148.554848,11332.407834
76.890528,6661.618118,-555.134843,9399.007173
76.891152,6661.618118,191.425808,7714.460062
76.891775,5474.778109,995.414202,6910.471669
76.892398,3751.945837,1397.408398,7197.610381
76.893022,2029.113565,1091.127106,7561.319416
76.893645,-612.562586,76.570323,8193.024582
76.894268,-3713.660675,-708.275490,8939.585234
76.894892,-6891.329088,-976.271621,9820.143950
76.895515,-8786.444587,-1033.699363,11121.839445
76.896138,-8767.302006,-478.564520,12212.966550
76.896761,-8059.026517,229.710970,13150.953010
76.897385,-7618.747158,1225.125171,13131.810429
76.898008,-7006.184573,1110.269686,11676.974288
76.898631,-6202.196179,727.418070,9954.142016
76.899255,-3330.809059,-535.992262,8193.024582
76.899878,-689.132909,-842.273555,7235.895542
76.900501,-210.568389,19.142581,6853.043926
76.901125,-1837.687757,574.277424,7293.323285
76.901748,-4230.510357,689.132909,7657.032320
76.902371,-5493.920690,38.285162,8441.878133
76.902995,-5991.627790,-325.423874,9437.292334
76.903618,-4957.928427,-382.851616,10107.282662
76.904241,-4421.936165,76.570323,11408.978157
76.904865,-3943.371645,306.281293,12653.245909
76.905488,-2584.248408,287.138712,12959.527202
76.906111,-172.283227,-133.998066,12576.675586
76.906734,3885.943902,-995.414202,11102.696864
76.907358,7905.885870,-1339.980656,8863.014910
76.907981,9877.571693,-382.851616,7312.465866
76.908604,9992.427178,1091.127106,6470.192310
76.909228,8078.169098,2411.965181,7044.469734
76.909851,6585.047795,2622.533570,8307.880067
76.910474,6623.332957,1607.976787,9016.155557
76.911098,6087.340694,1091.127106,9628.718142
76.911721,4977.071008,842.273555,9973.284597
76.912344,2469.392923,861.416136,11140.982026
76.912968,1512.263883,363.709035,12480.962682
76.913591,2316.252277,-555.134843,13610.374949
76.914214,4000.799387,-918.843878,13189.238171
76.914837,6087.340694,-1167.697429,11313.265253
76.915461,6929.614250,-669.990328,9245.866526
76.916084,6891.329088,210.568389,7561.319416
76.916707,5857.629725,1091.127106,6833.901346
76.917331,4019.941968,1416.550979,7082.754896
76.917954,2316.252277,1052.841944,7618.747158
76.918577,-555.134843,-76.570323,8078.169098
76.919201,-3943.371645,-784.845813,8824.729749
76.919824,-7140.182638,-918.843878,9724.431046
76.920447,-8901.300072,-995.414202,11179.267187
76.921071,-8997.012976,-248.853550,12270.394293
76.921694,-8269.594906,478.564520,13304.093656
76.922317,-7944.171032,1244.267752,13150.953010
76.922940,-7159.325219,1033.699363,11542.976222
76.923564,-6029.912952,497.707101,9743.573627
76.924187,-3215.953574,-669.990328,8078.169098
76.924810,-842.273555,-784.845813,7063.612315
76.925434,-823.130974,210.568389,6967.899411
76.926057,-2411.965181,746.560651,7369.893608
76.926680,-4670.789715,784.845813,7810.172966
76.927304,-5474.778109,-153.140646,8480.163294
76.927927,-5723.631659,-440.279358,9533.005238
76.928550,-4823.930362,-382.851616,10298.708470
76.929174,-4326.223261,191.425808,11600.403965
76.929797,-3905.086483,421.136778,12768.101394
76.930420,-2182.254211,172.283227,13093.525267
76.931044,669.990328,-287.138712,12519.247843
76.931667,4862.215523,-1091.127106,10872.985894
76.932290,8709.874264,-1167.697429,8671.589102
76.932913,10049.854920,-248.853550,7216.752962
76.933537,9858.429112,1301.695494,6393.621987
76.934160,8001.598774,2354.537438,6987.041992
76.934783,6565.905214,2526.820666,8384.450390
76.935407,6833.901346,1512.263883,8939.585234
76.936030,6125.625856,1091.127106,9552.147819
76.936653,4575.076811,976.271621,10126.425243
76.937277,2201.396792,842.273555,11236.694930
76.937900,1359.123237,267.996131,12787.243974
76.938523,2450.250342,-689.132909,13648.660110
76.939147,4000.799387,-937.986459,13150.953010
76.939770,5991.627790,-1052.841944,11179.267187
76.940393,6795.616184,-478.564520,9111.868461
76.941016,6489.334891,344.566454,7561.319416
76.941640,5589.633594,1129.412267,6929.614250
76.942263,3790.230998,1416.550979,7178.467800
76.942886,1952.543242,918.843878,7637.889739
76.943510,-937.986459,-95.712904,8078.169098
76.944133,-4441.078746,-823.130974,8977.870395
76.944756,-7312.465866,-918.843878,9877.571693
76.945380,-8652.446522,-1033.699363,11313.265253
76.946003,-8480.163294,-172.283227,12480.962682
76.946626,-7886.743290,535.992262,13246.665914
76.947250,-7982.456194,1225.125171,13112.667848
76.947873,-7274.180704,1033.699363,11466.405899
76.948496,-5819.344563,287.138712,9513.862658
76.949120,-2890.529701,-669.990328,7944.171032
76.949743,-459.421939,-803.988394,6872.186507
76.950366,-861.416136,306.281293,6853.043926
76.950989,-2565.105827,612.562586,7255.038123
76.951613,-4862.215523,650.847747,7752.745224
76.952236,-5551.348432,-191.425808,8441.878133
76.952859,-5704.489078,-440.279358,9494.720077
76.953483,-4881.358104,-325.423874,10432.706536
76.954106,-4268.795518,114.855485,11734.402030
76.954729,-4019.941968,344.566454,12882.956878
76.955353,-2163.111630,172.283227,13093.525267
76.955976,803.988394,-363.709035,12366.107197
76.956599,5053.641331,-1033.699363,10758.130410
76.957223,8977.870395,-1033.699363,8575.876198
76.957846,10241.280728,-114.855485,7255.038123
76.958469,9801.001370,1588.834206,6489.334891
76.959092,8001.598774,2392.822600,7178.467800
76.959716,6508.477472,2565.105827,8518.448456
76.960339,6967.899411,1339.980656,9035.298138
76.960962,6240.481341,995.414202,9437.292334
76.961586,4307.080680,1033.699363,10222.138147
76.962209,2105.683888,937.986459,11428.120738
76.962832,1397.408398,248.853550,13016.954944
76.963456,2794.816797,-842.273555,13648.660110
76.964079,4307.080680,-1033.699363,12921.242040
76.964702,6010.770371,-1205.982590,10796.415571
76.965326,6699.903280,-593.420005,8709.874264
76.965949,6068.198114,421.136778,7369.893608
76.966572,5340.780043,1244.267752,6853.043926
76.967196,3675.375514,1416.550979,7140.182638
76.967819,1588.834206,976.271621,7733.602643
76.968442,-1263.410333,-191.425808,8173.882002
76.969065,-5072.783912,-995.414202,9054.440718
76.969689,-7771.887805,-1129.412267,9973.284597
76.970312,-8786.444587,-1205.982590,11294.122672
76.970935,-8690.731683,-76.570323,12614.960747
76.971559,-7848.458128,727.418070,13399.806560
76.972182,-7982.456194,1416.550979,13208.380752
76.972805,-7235.895542,1167.697429,11428.120738
76.973429,-5321.637462,-19.142581,9245.866526
76.974052,-2507.678085,-899.701298,7733.602643
76.974675,-267.996131,-823.130974,6833.901346
76.975299,-1071.984525,344.566454,7025.327154
76.975922,-2852.244539,746.560651,7369.893608
76.976545,-5053.641331,765.703232,8020.741355
76.977168,-5570.491013,-133.998066,8652.446522
76.977792,-5398.207786,-382.851616,9590.432981
76.978415,-4689.932296,-191.425808,10528.419440
76.979038,-3962.514226,210.568389,11753.544611
76.979661,-3866.801322,382.851616,12959.527202
76.980285,-1971.685822,114.855485,13284.951075
76.980908,1359.123237,-593.420005,12327.822035
76.981531,5723.631659,-1282.552914,10566.704602
76.982154,9552.147819,-1033.699363,8231.309744
76.982777,10394.421374,57.427742,6872.186507
76.983401,9360.722011,1914.258080,6546.762634
76.984024,7676.174901,2641.676150,7121.040058
76.984647,6355.336826,2565.105827,8652.446522
76.985270,6948.756830,1263.410333,9111.868461
76.985893,6336.194245,861.416136,9399.007173
76.986517,3905.086483,861.416136,10375.278794
76.987140,1914.258080,612.562586,11562.118803
76.987763,1378.265818,-191.425808,13227.523333
76.988386,2890.529701,-803.988394,13648.660110
76.989009,4728.217458,-957.129040,12729.816232
76.989633,6221.338760,-803.988394,10681.560086
76.990256,6948.756830,-191.425808,8575.876198
76.990879,5991.627790,574.277424,7255.038123
76.991502,5015.356170,1071.984525,6948.756830
76.992125,3407.379382,1110.269686,7082.754896
76.992749,1186.840010,689.132909,7676.174901
76.993372,-1761.117434,-210.568389,8231.309744
76.993995,-5647.061336,-650.847747,9150.153622
76.994618,-8097.311678,-746.560651,10222.138147
76.995241,-8958.727814,-957.129040,11638.689126
76.995864,-8729.016845,-19.142581,12940.384621
76.996488,-7771.887805,555.134843,13265.808494
76.997111,-7810.172966,1167.697429,12768.101394
76.997734,-7159.325219,1052.841944,11121.839445
76.998357,-4804.787781,-57.427742,9111.868461
76.998980,-2239.681954,-612.562586,7695.317482
76.999604,-248.853550,-440.279358,6891.329088
77.000227,-1320.838075,535.992262,6967.899411
77.000850,-3120.240670,574.277424,7197.610381
77.001473,-5091.926493,382.851616,7925.028451
77.002096,-5685.346498,-440.279358,8671.589102
77.002720,-5168.496816,-459.421939,9743.573627
77.003343,-4766.502619,-19.142581,10815.558152
77.003966,-4000.799387,191.425808,12117.253646
77.004589,-3483.949706,421.136778,13036.097525
77.005212,-1320.838075,19.142581,13246.665914
77.005836,2163.111630,-631.705166,12136.396227
77.006459,6431.907149,-1244.267752,10202.995566
77.007082,9705.288466,-746.560651,8039.883936
77.007705,10317.851051,229.710970,6719.045861
77.008328,8939.585234,2086.541307,6680.760699
77.008952,7446.463931,2584.248408,7350.751027
77.009575,6412.764568,2220.539373,8671.589102
77.010198,6738.188442,1339.980656,9188.438784
77.010821,6029.912952,957.129040,9513.862658
77.011444,3426.521963,1052.841944,10547.562021
77.012068,1895.115499,650.847747,11944.970419
77.012691,1818.545176,-344.566454,13457.234302
77.013314,3196.810994,-861.416136,13706.087853
77.013937,5072.783912,-1148.554848,12366.107197
77.014560,6240.481341,-918.843878,10279.565890
77.015184,6872.186507,-153.140646,8212.167163
77.015807,5953.342629,727.418070,7006.184573
77.016430,4594.219392,1359.123237,7044.469734
77.017053,3081.955509,1339.980656,7197.610381
77.017676,631.705166,574.277424,7752.745224
77.018300,-2392.822600,-478.564520,8384.450390
77.018923,-5991.627790,-976.271621,9265.009107
77.019546,-8346.165229,-1071.984525,10375.278794
77.020169,-8824.729749,-842.273555,11868.400096
77.020792,-8499.305875,133.998066,13093.525267
77.021416,-7810.172966,918.843878,13495.519464
77.022039,-7637.889739,1359.123237,12595.818166
77.022662,-7025.327154,1091.127106,10853.843314
77.023285,-4307.080680,-287.138712,8767.302006
77.023908,-1856.830338,-880.558717,7465.606512
77.024532,-421.136778,-382.851616,6853.043926
77.025155,-1722.832272,440.279358,7044.469734
77.025778,-3675.375514,574.277424,7369.893608
77.026401,-5168.496816,306.281293,8020.741355
77.027024,-5685.346498,-306.281293,8920.442653
77.027648,-4823.930362,-267.996131,9781.858789
77.028271,-4421.936165,133.998066,11045.269122
77.028894,-3981.656806,325.423874,12519.247843
77.029517,-3005.385186,325.423874,13170.095590
77.030140,-899.701298,-76.570323,13074.382686
77.030764,3330.809059,-861.416136,11791.829773
77.031387,7465.606512,-1397.408398,9686.145885
77.032010,9992.427178,-612.562586,7752.745224
77.032633,10222.138147,535.992262,6489.334891
77.033256,8403.592971,2411.965181,6738.188442
77.033880,7006.184573,2641.676150,7637.889739
77.034503,6699.903280,1971.685822,8652.446522
77.035126,6661.618118,1244.267752,9341.579430
77.035749,5857.629725,842.273555,9628.718142
77.036372,2986.242605,918.843878,10815.558152
77.036996,1627.119368,344.566454,12193.823970
77.037619,1895.115499,-650.847747,13686.945272
77.038242,3503.092286,-976.271621,13667.802691
77.038865,5398.207786,-1071.984525,11983.255581
77.039488,6240.481341,-593.420005,9877.571693
77.040112,6489.334891,76.570323,8059.026517
77.040735,5742.774240,957.129040,7044.469734
77.041358,4115.654872,1320.838075,7063.612315
77.041981,2641.676150,1110.269686,7312.465866
77.042604,-57.427742,153.140646,7695.317482
77.043227,-3254.238736,-669.990328,8499.305875
77.043851,-6508.477472,-957.129040,9418.149754
77.044474,-8690.731683,-880.558717,10777.272990
77.045097,-8767.302006,-325.423874,12002.398162
77.045720,-8212.167163,248.853550,13227.523333
77.046343,-7867.600709,957.129040,13457.234302
77.046967,-7293.323285,918.843878,12021.540742
77.047590,-6661.618118,669.990328,10298.708470
77.048213,-3828.516160,-497.707101,8461.020714
77.048836,-1244.267752,-669.990328,7216.752962
77.049459,-765.703232,133.998066,6910.471669
77.050083,-2086.541307,593.420005,7082.754896
77.050706,-4383.651003,631.705166,7350.751027
77.051329,-5168.496816,-191.425808,7982.456194
77.051952,-5474.778109,-459.421939,9016.155557
77.052575,-4689.932296,-248.853550,9934.999435
77.053199,-4287.938099,191.425808,11389.835576
77.053822,-4153.940034,459.421939,12787.243974
77.054445,-2641.676150,210.568389,13323.236237
77.055068,-76.570323,-267.996131,12921.242040
77.055691,4268.795518,-1014.556782,11313.265253
77.056315,8269.594906,-1263.410333,9111.868461
77.056938,10030.712339,-267.996131,7523.034254
77.057561,9954.142016,1186.840010,6546.762634
77.058184,7963.313613,2411.965181,7006.184573
77.058807,6642.475538,2565.105827,8020.741355
77.059431,7063.612315,1588.834206,8595.018779
77.060054,6680.760699,1110.269686,9245.866526
77.060677,5283.352301,957.129040,9839.286531
77.061300,2660.818731,880.558717,11006.983960
77.061923,1588.834206,229.710970,12653.245909
77.062547,2488.535504,-784.845813,13763.515595
77.063170,3713.660675,-1033.699363,13399.806560
77.063793,5685.346498,-995.414202,11485.548480
77.064416,6489.334891,-535.992262,9379.864592
77.065039,6202.196179,401.994197,7714.460062
77.065663,5551.348432,1129.412267,6948.756830
77.066286,3751.945837,1473.978722,6929.614250
77.066909,1914.258080,995.414202,7331.608446
77.067532,-746.560651,-172.283227,7752.745224
77.068155,-4249.652938,-957.129040,8633.303941
77.068779,-7255.038123,-957.129040,9590.432981
77.069402,-8767.302006,-957.129040,11083.554283
77.070025,-8690.731683,-114.855485,12385.249778
77.070648,-7791.030386,516.849682,13399.806560
77.071271,-7905.885870,1244.267752,13361.521398
77.071895,-7350.751027,1033.699363,11753.544611
77.072518,-6087.340694,267.996131,9762.716208
77.073141,-3215.953574,-669.990328,8212.167163
77.073764,-765.703232,-727.418070,7159.325219
77.074387,-1071.984525,325.423874,7044.469734
77.075011,-2545.963246,612.562586,7178.467800
77.075634,-4804.787781,689.132909,7637.889739
77.076257,-5283.352301,-210.568389,8097.311678
77.076880,-5264.209720,-401.994197,9150.153622
77.077503,-4517.649069,-229.710970,10260.423309
77.078127,-3885.943902,229.710970,11696.116869
77.078750,-3751.945837,421.136778,12997.812363
77.079373,-2143.969050,133.998066,13438.091722
77.079996,765.703232,-459.421939,12672.388490
77.080619,5072.783912,-1225.125171,10949.556218
77.081243,8939.585234,-1225.125171,8575.876198
77.081866,10145.567824,-172.283227,7178.467800
77.082489,9552.147819,1646.261949,6470.192310
77.083112,7695.317482,2488.535504,7082.754896
77.083736,6431.907149,2622.533570,8384.450390
77.084359,7140.182638,1397.408398,8843.872330
77.084983,6527.620053,957.129040,9245.866526
77.085606,4575.076811,1014.556782,10030.712339
77.086230,2450.250342,823.130974,11313.265253
77.086853,1627.119368,0.000000,13170.095590
77.087477,2794.816797,-880.558717,13820.943338
77.088100,4268.795518,-1091.127106,13055.240106
77.088724,5742.774240,-842.273555,11045.269122
77.089347,6565.905214,-344.566454,8920.442653
77.089971,5895.914886,497.707101,7484.749093
77.090594,5072.783912,1167.697429,7006.184573
77.091218,3407.379382,1378.265818,6948.756830
77.091841,1282.552914,842.273555,7503.891674
77.092465,-1493.121302,-325.423874,8001.598774
77.093088,-5072.783912,-880.558717,8863.014910
77.093712,-7676.174901,-957.129040,9839.286531
77.094335,-8824.729749,-918.843878,11351.550414
77.094959,-8748.159426,133.998066,12768.101394
77.095582,-7829.315547,669.990328,13438.091722
77.096206,-7810.172966,1205.982590,13131.810429
77.096829,-7101.897477,976.271621,11332.407834
77.097453,-5168.496816,-153.140646,9188.438784
77.098076,-2737.389054,-765.703232,7810.172966
77.098700,-689.132909,-555.134843,7044.469734
77.099323,-1550.549045,478.564520,7082.754896
77.099947,-3139.383251,593.420005,7216.752962
77.100570,-4977.071008,516.849682,7714.460062
77.101194,-5417.350366,-325.423874,8422.735552
77.101817,-4823.930362,-344.566454,9399.007173
77.102441,-4345.365842,57.427742,10604.989763
77.103064,-3828.516160,325.423874,12040.683323
77.103688,-3503.092286,382.851616,13170.095590
77.104311,-1588.834206,0.000000,13380.663979
77.104935,1990.828403,-708.275490,12423.534939
77.105558,6336.194245,-1282.552914,10490.134278
77.106182,9686.145885,-784.845813,8193.024582
77.106805,10279.565890,248.853550,6833.901346
77.107429,8805.587168,2201.396792,6699.903280
77.108052,7235.895542,2603.390989,7312.465866
77.108676,6451.049730,2239.681954,8461.020714
77.109299,7025.327154,1186.840010,9054.440718
77.109923,6451.049730,861.416136,9303.294269
77.110546,3732.803256,1014.556782,10317.851051
77.111170,2067.398726,612.562586,11696.116869
77.111793,1780.260014,-306.281293,13495.519464
77.112417,3158.525832,-842.273555,13801.800757
77.113040,4938.785846,-1129.412267,12538.390424
77.113664,5991.627790,-708.275490,10547.562021
77.114287,6585.047795,-19.142581,8499.305875
77.114911,5800.201982,708.275490,7216.752962
77.115534,4364.508422,1320.838075,7082.754896
77.116158,2909.672282,1263.410333,7063.612315
77.116781,459.421939,497.707101,7465.606512
77.117405,-2488.535504,-516.849682,8078.169098
77.118028,-5876.772306,-995.414202,9073.583299
77.118652,-8135.596840,-976.271621,10317.851051
77.119275,-8633.303941,-631.705166,11753.544611
77.119899,-8327.022648,210.568389,13093.525267
77.120522,-7810.172966,937.986459,13552.947206
77.121146,-7733.602643,1167.697429,12672.388490
77.121769,-7197.610381,842.273555,10853.843314
77.122393,-4421.936165,-325.423874,8824.729749
77.123016,-1971.685822,-708.275490,7599.604578
77.123640,-631.705166,-133.998066,7101.897477
77.124263,-1914.258080,478.564520,7197.610381
77.124887,-3828.516160,631.705166,7350.751027
77.125510,-4996.213589,76.570323,7752.745224
77.126134,-5436.492947,-344.566454,8671.589102
77.126757,-4651.647134,-229.710970,9628.718142
77.127381,-4211.367776,114.855485,11026.126541
77.128004,-3732.803256,306.281293,12614.960747
77.128628,-2699.103893,229.710970,13265.808494
77.129251,-689.132909,-191.425808,13112.667848
77.129875,3177.668413,-880.558717,11791.829773
77.130498,7350.751027,-1301.695494,9724.431046
77.131122,9858.429112,-535.992262,7829.315547
77.131745,10030.712339,861.416136,6527.620053
77.132369,8288.737486,2392.822600,6795.616184
77.132992,7025.327154,2679.961312,7714.460062
77.133616,7044.469734,1837.687757,8518.448456
77.134239,6891.329088,1110.269686,9169.296203
77.134863,5876.772306,823.130974,9552.147819
77.135486,3120.240670,880.558717,10662.417506
77.136110,1856.830338,363.709035,12232.109131
77.136733,2201.396792,-535.992262,13744.373014
77.137357,3369.094221,-880.558717,13725.230434
77.137980,5264.209720,-1033.699363,12059.825904
77.138604,6144.768437,-650.847747,9877.571693
77.139227,6087.340694,76.570323,8154.739421
77.139850,5455.635528,937.986459,7159.325219
77.140474,3885.943902,1435.693560,7025.327154
77.141097,2354.537438,1167.697429,7197.610381
77.141721,-248.853550,114.855485,7618.747158
77.142344,-3560.520029,-708.275490,8461.020714
77.142968,-6680.760699,-899.701298,9360.722011
77.143591,-8518.448456,-995.414202,10738.987829
77.144215,-8767.302006,-325.423874,12002.398162
77.144838,-8078.169098,401.994197,13227.523333
77.145462,-7944.171032,1167.697429,13552.947206
77.146085,-7484.749093,1014.556782,12232.109131
77.146709,-6508.477472,401.994197,10279.565890
77.147332,-3675.375514,-689.132909,8461.020714
77.147956,-1091.127106,-765.703232,7235.895542
77.148579,-957.129040,114.855485,7025.327154
77.149203,-2297.109696,497.707101,7178.467800
77.149826,-4594.219392,708.275490,7484.749093
77.150450,-5072.783912,-133.998066,7963.313613
77.151073,-5245.067139,-287.138712,8863.014910
77.151697,-4594.219392,-191.425808,10030.712339
77.152320,-3866.801322,210.568389,11447.263318
77.152944,-3771.088418,382.851616,12806.386555
77.153567,-2201.396792,172.283227,13380.663979
77.154191,267.996131,-401.994197,12902.099459
77.154814,4421.936165,-1071.984525,11447.263318
77.155438,8709.874264,-1167.697429,9073.583299
77.156061,10241.280728,-191.425808,7408.178770
77.156685,9820.143950,1588.834206,6451.049730
77.157308,7848.458128,2507.678085,6967.899411
77.157932,6336.194245,2603.390989,8269.594906
77.158555,7025.327154,1301.695494,8690.731683
77.159179,6623.332957,937.986459,8958.727814
77.159802,5034.498750,976.271621,9686.145885
77.160426,2909.672282,937.986459,11026.126541
77.161049,1875.972918,191.425808,12997.812363
77.161673,2737.389054,-689.132909,13935.798822
77.162296,4039.084549,-1052.841944,13323.236237
77.162920,5493.920690,-1091.127106,11408.978157
77.163543,6431.907149,-631.705166,9131.011042
77.164167,5857.629725,306.281293,7695.317482
77.164790,5015.356170,1167.697429,7063.612315
77.165414,3330.809059,1493.121302,7044.469734
77.166037,1148.554848,1110.269686,7369.893608
77.166661,-1378.265818,-191.425808,7886.743290
77.167284,-4785.645200,-937.986459,8633.303941
77.167908,-7255.038123,-1091.127106,9552.147819
77.168531,-8480.163294,-1148.554848,11026.126541
77.169155,-8652.446522,-57.427742,12576.675586
77.169778,-7886.743290,708.275490,13533.804626
77.170402,-7944.171032,1512.263883,13399.806560
77.171025,-7312.465866,1148.554848,11734.402030
77.171649,-5398.207786,-38.285162,9437.292334
77.172272,-2947.957443,-803.988394,7982.456194
77.172896,-880.558717,-689.132909,7025.327154
77.173519,-1761.117434,248.853550,7101.897477
77.174143,-3120.240670,401.994197,7235.895542
77.174766,-4785.645200,421.136778,7637.889739
77.175390,-5149.354235,-172.283227,8212.167163
77.176013,-4613.361973,-153.140646,9092.725880
77.176637,-4153.940034,172.283227,10394.421374
77.177260,-3713.660675,306.281293,11868.400096
77.177883,-3292.523898,325.423874,12997.812363
77.178506,-1607.976787,-19.142581,13380.663979
77.179130,1837.687757,-708.275490,12576.675586
77.179753,6049.055533,-1320.838075,10758.130410
77.180376,9379.864592,-842.273555,8441.878133
77.180999,10126.425243,210.568389,7044.469734
77.181622,8805.587168,2124.826469,6585.047795
77.182245,7274.180704,2641.676150,7159.325219
77.182868,6604.190376,2297.109696,8288.737486
77.183491,7121.040058,1320.838075,8882.157491
77.184115,6642.475538,918.843878,9169.296203
77.184738,3943.371645,1052.841944,10241.280728
77.185361,2392.822600,555.134843,11657.831707
77.185984,1914.258080,-421.136778,13399.806560
77.186607,3139.383251,-861.416136,13744.373014
77.187230,4919.643266,-1110.269686,12595.818166
77.187853,5742.774240,-631.705166,10681.560086
77.188476,6278.766502,0.000000,8709.874264
77.189100,5570.491013,650.847747,7446.463931
77.189723,4134.797453,1282.552914,7235.895542
77.190346,2871.387120,1186.840010,7044.469734
77.190969,421.136778,401.994197,7331.608446
77.191592,-2450.250342,-612.562586,7982.456194
77.192215,-5781.059402,-1014.556782,8920.442653
77.192838,-8078.169098,-995.414202,10145.567824
77.193461,-8690.731683,-516.849682,11676.974288
77.194085,-8327.022648,229.710970,13055.240106
77.194708,-7848.458128,957.129040,13533.804626
77.195331,-7695.317482,1148.554848,12787.243974
77.195954,-7178.467800,823.130974,11045.269122
77.196577,-4498.506488,-516.849682,8939.585234
77.197200,-1990.828403,-823.130974,7733.602643
77.197823,-823.130974,-287.138712,7082.754896
77.198446,-1990.828403,401.994197,7140.182638
77.199070,-3981.656806,612.562586,7293.323285
77.199693,-4900.500685,57.427742,7695.317482
77.200316,-5302.494882,-248.853550,8556.733618
77.200939,-4460.221326,-95.712904,9590.432981
77.201562,-3943.371645,210.568389,10949.556218
77.202185,-3675.375514,363.709035,12500.105262
77.202808,-2545.963246,172.283227,13227.523333
77.203431,-574.277424,-287.138712,13284.951075
77.204055,3426.521963,-918.843878,12002.398162
77.204678,7561.319416,-1205.982590,9877.571693
77.205301,9954.142016,-363.709035,8020.741355
77.205924,10126.425243,995.414202,6719.045861
77.206547,8173.882002,2411.965181,6833.901346
77.207170,6642.475538,2603.390989,7676.174901
77.207793,6833.901346,1627.119368,8307.880067
77.208416,6833.901346,1052.841944,8920.442653
77.209040,5857.629725,918.843878,9456.434915
77.209663,3464.807125,957.129040,10643.274925
77.210286,1990.828403,497.707101,12519.247843
77.210909,2411.965181,-516.849682,13686.945272
77.211532,3407.379382,-880.558717,13648.660110
77.212155,5302.494882,-1014.556782,11906.685258
77.212778,6297.909083,-746.560651,9743.573627
77.213401,5972.485210,191.425808,8269.594906
77.214025,5283.352301,1033.699363,7216.752962
77.214648,3522.234867,1416.550979,7063.612315
77.215271,1837.687757,1167.697429,7274.180704
77.215894,-555.134843,-57.427742,7523.034254
77.216517,-3847.658741,-880.558717,8212.167163
77.217140,-6833.901346,-976.271621,9188.438784
77.217763,-8614.161360,-1052.841944,10662.417506
77.218386,-8748.159426,-267.996131,12155.538808
77.219010,-7963.313613,497.707101,13457.234302
77.219633,-7848.458128,1167.697429,13706.087853
77.220256,-7216.752962,1033.699363,12212.966550
77.220879,-6183.053598,401.994197,10011.569758
77.221502,-3617.947771,-650.847747,8422.735552
77.222125,-1244.267752,-727.418070,7235.895542
77.222748,-1512.263883,191.425808,7197.610381
77.223372,-2699.103893,382.851616,7235.895542
77.223995,-4594.219392,478.564520,7542.176835
77.224618,-5034.498750,-229.710970,7905.885870
77.225241,-4881.358104,-191.425808,8709.874264
77.225864,-4383.651003,57.427742,9954.142016
77.226487,-3617.947771,421.136778,11428.120738
77.227110,-3349.951640,478.564520,12844.671717
77.227733,-1856.830338,114.855485,13591.232368
77.228357,880.558717,-650.847747,12940.384621
77.228980,4938.785846,-1225.125171,11236.694930
77.229603,8920.442653,-1052.841944,8939.585234
77.230226,10107.282662,57.427742,7369.893608
77.230849,9341.579430,1837.687757,6585.047795
77.231472,7523.034254,2641.676150,7006.184573
77.232095,6221.338760,2526.820666,8135.596840
77.232718,7140.182638,1225.125171,8614.161360
77.233342,6853.043926,803.988394,8958.727814
77.233965,4843.072942,937.986459,9915.856854
77.234588,2967.100024,765.703232,11294.122672
77.235211,2048.256146,-76.570323,13246.665914
77.235834,2871.387120,-631.705166,13954.941403
77.236457,4402.793584,-1110.269686,13016.954944
77.237080,5436.492947,-727.418070,11083.554283
77.237703,6278.766502,-267.996131,9073.583299
77.238327,5666.203917,516.849682,7676.174901
77.238950,4441.078746,1205.982590,7331.608446
77.239573,3024.527766,1320.838075,7121.040058
77.240196,784.845813,784.845813,7312.465866
77.240819,-1780.260014,-421.136778,7752.745224
77.241442,-5149.354235,-937.986459,8537.591037
77.242065,-7695.317482,-1014.556782,9628.718142
77.242688,-8652.446522,-784.845813,11274.980091
77.243312,-8614.161360,95.712904,12902.099459
77.243935,-7810.172966,784.845813,13629.517530
77.244558,-7733.602643,1225.125171,13208.380752
77.245181,-7178.467800,957.129040,11447.263318
77.245804,-4938.785846,-229.710970,9226.723946
77.246427,-2737.389054,-689.132909,7905.885870
77.247050,-1129.412267,-344.566454,7121.040058
77.247673,-2105.683888,325.423874,7293.323285
77.248297,-3675.375514,478.564520,7255.038123
77.248920,-4670.789715,38.285162,7484.749093
77.249543,-5072.783912,-440.279358,8173.882002
77.250166,-4441.078746,-133.998066,9111.868461
77.250789,-4096.512291,267.996131,10528.419440
77.251412,-3656.232933,593.420005,12327.822035
77.252035,-2833.101958,344.566454,13265.808494
77.252658,-1014.556782,-210.568389,13495.519464
77.253282,2737.389054,-899.701298,12308.679454
77.253905,6833.901346,-1454.836141,10356.136213
77.254528,9494.720077,-708.275490,8269.594906
77.255151,10011.569758,574.277424,6872.186507
77.255774,8307.880067,2354.537438,6872.186507
77.256397,6833.901346,2737.389054,7503.891674
77.257020,6738.188442,2048.256146,8250.452325
77.257643,7025.327154,1301.695494,8843.872330
77.258267,6527.620053,918.843878,9226.723946
77.258890,3905.086483,937.986459,10375.278794
77.259513,2431.107762,382.851616,12174.681389
77.260136,2392.822600,-631.705166,13686.945272
77.260759,3311.666478,-899.701298,13801.800757
77.261382,5111.069074,-937.986459,12212.966550
77.262005,5972.485210,-574.277424,10260.423309
77.262628,5857.629725,191.425808,8690.731683
77.263252,5149.354235,918.843878,7484.749093
77.263875,3541.377448,1301.695494,7178.467800
77.264498,2163.111630,995.414202,7159.325219
77.265121,-76.570323,-19.142581,7293.323285
77.265744,-3081.955509,-803.988394,8059.026517
77.266367,-6240.481341,-976.271621,8977.870395
77.266990,-8193.024582,-899.701298,10394.421374
77.267613,-8652.446522,-191.425808,11887.542677
77.268237,-8135.596840,459.421939,13342.378818
77.268860,-8001.598774,1071.984525,13686.945272
77.269483,-7542.176835,918.843878,12385.249778
77.270106,-6757.331022,401.994197,10490.134278
77.270729,-4153.940034,-631.705166,8633.303941
77.271352,-1761.117434,-765.703232,7465.606512
77.271975,-1588.834206,114.855485,7235.895542
77.272598,-2526.820666,401.994197,7216.752962
77.273222,-4345.365842,497.707101,7465.606512
77.273845,-4747.360038,-114.855485,7657.032320
77.274468,-4709.074877,-248.853550,8537.591037
77.275091,-4287.938099,19.142581,9705.288466
77.275714,-3675.375514,344.566454,11255.837510
77.276337,-3464.807125,344.566454,12729.816232
77.276960,-2086.541307,38.285162,13380.663979
77.277583,516.849682,-478.564520,13055.240106
77.278207,4421.936165,-957.129040,11657.831707
77.278830,8384.450390,-995.414202,9360.722011
77.279453,9801.001370,-172.283227,7771.887805
77.280076,9494.720077,1454.836141,6680.760699
77.280699,7771.887805,2297.109696,6929.614250
77.281322,6431.907149,2469.392923,8039.883936
77.281945,7274.180704,1301.695494,8403.592971
77.282569,6891.329088,937.986459,8920.442653
77.283192,5111.069074,995.414202,9609.575562
77.283815,3101.098090,861.416136,10853.843314
77.284438,1933.400661,57.427742,12959.527202
77.285061,2775.674216,-650.847747,13840.085918
77.285685,4173.082614,-1071.984525,13304.093656
77.286308,5302.494882,-784.845813,11485.548480
77.286931,6202.196179,-287.138712,9418.149754
77.287554,5570.491013,497.707101,8020.741355
77.288178,4479.363907,1205.982590,7446.463931
77.288801,3081.955509,1282.552914,6987.041992
77.289424,1033.699363,765.703232,7235.895542
77.290047,-1397.408398,-344.566454,7599.604578
77.290671,-4766.502619,-937.986459,8422.735552
77.291294,-7274.180704,-937.986459,9456.434915
77.291917,-8384.450390,-746.560651,10968.698798
77.292540,-8518.448456,153.140646,12672.388490
77.293163,-7810.172966,708.275490,13591.232368
77.293787,-8001.598774,1186.840010,13476.376883
77.294410,-7408.178770,937.986459,11791.829773
77.295033,-5321.637462,-210.568389,9475.577496
77.295656,-2928.814862,-708.275490,8154.739421
77.296280,-1033.699363,-421.136778,7293.323285
77.296903,-2048.256146,306.281293,7331.608446
77.297526,-3522.234867,459.421939,7255.038123
77.298149,-4689.932296,153.140646,7427.321350
77.298772,-4977.071008,-382.851616,7982.456194
77.299396,-4268.795518,-210.568389,8863.014910
77.300019,-3981.656806,248.853550,10336.993632
77.300642,-3617.947771,497.707101,12021.540742
77.301265,-2967.100024,306.281293,13170.095590
77.301889,-1282.552914,-114.855485,13533.804626
77.302512,2431.107762,-861.416136,12538.390424
77.303135,6431.907149,-1301.695494,10662.417506
77.303758,9494.720077,-689.132909,8556.733618
77.304382,9954.142016,497.707101,7006.184573
77.305005,8346.165229,2277.967115,6833.901346
77.305628,6948.756830,2641.676150,7427.321350
77.306251,6699.903280,2086.541307,8154.739421
77.306874,7159.325219,1263.410333,8729.016845
77.307498,6508.477472,918.843878,9035.298138
77.308121,4019.941968,976.271621,10088.140082
77.308744,2584.248408,497.707101,11791.829773
77.309367,2431.107762,-516.849682,13552.947206
77.309991,3349.951640,-861.416136,13859.228499
77.310614,4957.928427,-976.271621,12385.249778
77.311237,5666.203917,-612.562586,10432.706536
77.311860,5704.489078,133.998066,8958.727814
77.312484,5206.781978,823.130974,7695.317482
77.313107,3694.518094,1320.838075,7293.323285
77.313730,2316.252277,1148.554848,7121.040058
77.314353,-95.712904,210.568389,7197.610381
77.314976,-3215.953574,-727.418070,7925.028451
77.315600,-6221.338760,-1052.841944,8748.159426
77.316223,-8154.739421,-1014.556782,10088.140082
77.316846,-8403.592971,-287.138712,11696.116869
77.317469,-8001.598774,440.279358,13227.523333
77.318093,-7733.602643,1129.412267,13763.515595
77.318716,-7580.461997,1091.127106,12672.388490
77.319339,-7006.184573,593.420005,10796.415571
77.319962,-4287.938099,-574.277424,8920.442653
77.320585,-1914.258080,-803.988394,7599.604578
77.321209,-1646.261949,95.712904,7274.180704
77.321832,-2584.248408,344.566454,7255.038123
77.322455,-4441.078746,440.279358,7408.178770
77.323078,-4689.932296,-172.283227,7599.604578
77.323702,-4632.504554,-382.851616,8384.450390
77.324325,-4077.369710,0.000000,9494.720077
77.324948,-3445.664544,344.566454,10987.841379
77.325571,-3464.807125,459.421939,12595.818166
77.326195,-2201.396792,133.998066,13457.234302
77.326818,210.568389,-478.564520,13189.238171
77.327441,4192.225195,-1033.699363,11830.114934
77.328064,8307.880067,-1167.697429,9609.575562
77.328687,9973.284597,-229.710970,7905.885870
77.329311,9552.147819,1493.121302,6661.618118
77.329934,7618.747158,2450.250342,7006.184573
77.330557,6259.623922,2565.105827,7982.456194
77.331180,7140.182638,1473.978722,8441.878133
77.331804,6987.041992,976.271621,8709.874264
77.332427,5493.920690,995.414202,9513.862658
77.333050,3560.520029,995.414202,10700.702667
77.333673,2297.109696,133.998066,12940.384621
77.334297,2890.529701,-516.849682,13878.371080
77.334920,4077.369710,-1129.412267,13342.378818
77.335543,5225.924558,-918.843878,11657.831707
77.336166,6087.340694,-516.849682,9513.862658
77.336789,5493.920690,344.566454,8193.024582
77.337413,4498.506488,1225.125171,7580.461997
77.338036,3101.098090,1416.550979,7121.040058
77.338659,937.986459,1033.699363,7312.465866
77.339282,-1416.550979,-344.566454,7523.034254
77.339906,-4785.645200,-995.414202,8250.452325
77.340529,-7121.040058,-1205.982590,9207.581365
77.341152,-8231.309744,-1033.699363,10777.272990
77.341775,-8480.163294,95.712904,12557.533005
77.342398,-7810.172966,803.988394,13629.517530
77.343022,-7925.028451,1416.550979,13457.234302
77.343645,-7465.606512,1091.127106,11849.257515
77.344268,-5417.350366,-153.140646,9552.147819
77.344891,-3158.525832,-842.273555,8135.596840
77.345515,-1359.123237,-593.420005,7312.465866
77.346138,-2297.109696,172.283227,7350.751027
77.346761,-3598.805190,421.136778,7427.321350
77.347384,-4613.361973,172.283227,7465.606512
77.348008,-4766.502619,-287.138712,7944.171032
77.348631,-4096.512291,-76.570323,8709.874264
77.349254,-3751.945837,344.566454,10183.852986
77.349877,-3464.807125,593.420005,11983.255581
77.350500,-2813.959378,229.710970,13150.953010
77.351124,-1129.412267,-229.710970,13629.517530
77.351747,2507.678085,-899.701298,12614.960747
77.352370,6508.477472,-1282.552914,10796.415571
77.352993,9456.434915,-574.277424,8652.446522
77.353617,10011.569758,612.562586,7044.469734
77.354240,8365.307810,2335.394858,6872.186507
77.354863,6719.045861,2679.961312,7427.321350
77.355486,6470.192310,2009.970984,8135.596840
77.356110,7101.897477,1110.269686,8671.589102
77.356733,6795.616184,765.703232,8997.012976
77.357356,4498.506488,976.271621,10030.712339
77.357979,2833.101958,593.420005,11849.257515
77.358602,2469.392923,-325.423874,13533.804626
77.359226,3177.668413,-880.558717,13859.228499
77.359849,4881.358104,-1052.841944,12404.392358
77.360472,5742.774240,-708.275490,10451.849117
77.361095,5704.489078,95.712904,8939.585234
77.361719,5111.069074,842.273555,7752.745224
77.362342,3369.094221,1397.408398,7408.178770
77.362965,1895.115499,1167.697429,7197.610381
77.363588,-248.853550,95.712904,7140.182638
77.364211,-3101.098090,-880.558717,7771.887805
77.364835,-6029.912952,-1091.127106,8652.446522
77.365458,-7982.456194,-976.271621,10107.282662
77.366081,-8575.876198,-229.710970,11696.116869
77.366704,-7982.456194,555.134843,13265.808494
77.367328,-7752.745224,1091.127106,13840.085918
77.367951,-7331.608446,1014.556782,12614.960747
77.368574,-6776.473603,574.277424,10585.847182
77.369197,-4402.793584,-497.707101,8805.587168
77.369821,-2182.254211,-727.418070,7637.889739
77.370444,-1952.543242,76.570323,7484.749093
77.371067,-2718.246474,287.138712,7427.321350
77.371690,-4383.651003,344.566454,7503.891674
77.372313,-4594.219392,-248.853550,7523.034254
77.372937,-4555.934230,-287.138712,8212.167163
77.373560,-4019.941968,172.283227,9437.292334
77.374183,-3407.379382,516.849682,11006.983960
77.374806,-3235.096155,459.421939,12653.245909
77.375430,-1933.400661,95.712904,13476.376883
77.376053,631.705166,-631.705166,13093.525267
77.376676,4421.936165,-1148.554848,11772.687192
77.377299,8269.594906,-1033.699363,9475.577496
77.377923,9820.143950,-95.712904,7867.600709
77.378546,9360.722011,1607.976787,6757.331022
77.379169,7561.319416,2450.250342,7063.612315
77.379792,6144.768437,2507.678085,7982.456194
77.380415,7082.754896,1339.980656,8384.450390
77.381039,7101.897477,880.558717,8690.731683
77.381662,5436.492947,1091.127106,9494.720077
77.382285,3637.090352,1033.699363,10834.700733
77.382909,2392.822600,133.998066,13074.382686
77.383532,2890.529701,-650.847747,13974.083984
77.384156,4230.510357,-1263.410333,13074.382686
77.384779,5168.496816,-861.416136,11408.978157
77.385403,6163.911018,-382.851616,9379.864592
77.386026,5417.350366,478.564520,8173.882002
77.386650,3981.656806,1339.980656,7752.745224
77.387273,2622.533570,1435.693560,7293.323285
77.387897,440.279358,880.558717,7255.038123
77.388520,-1722.832272,-516.849682,7542.176835
77.389144,-4613.361973,-1359.123237,8193.024582
77.389767,-7025.327154,-1320.838075,9092.725880
77.390391,-8193.024582,-823.130974,10796.415571
77.391014,-8365.307810,401.994197,12595.818166
77.391638,-7810.172966,1091.127106,13763.515595
77.392261,-7829.315547,1531.406464,13533.804626
77.392885,-7484.749093,1033.699363,11734.402030
77.393508,-5379.065205,-363.709035,9399.007173
77.394132,-3139.383251,-1014.556782,8059.026517
77.394755,-1627.119368,-612.562586,7331.608446
77.395379,-2354.537438,114.855485,7561.319416
77.396002,-3771.088418,478.564520,7484.749093
77.396626,-4594.219392,172.283227,7523.034254
77.397249,-4785.645200,-191.425808,7944.171032
77.397873,-4115.654872,57.427742,8767.302006
77.398496,-3503.092286,401.994197,10107.282662
77.399120,-3273.381317,459.421939,12002.398162
77.399743,-2392.822600,172.283227,13170.095590
77.400367,-823.130974,-191.425808,13533.804626
77.400990,2756.531635,-937.986459,12538.390424
77.401614,6719.045861,-1225.125171,10643.274925
77.402237,9475.577496,-516.849682,8614.161360
77.402861,9954.142016,765.703232,6967.899411
77.403484,8212.167163,2258.824534,6910.471669
77.404107,6642.475538,2565.105827,7580.461997
77.404731,6661.618118,1818.545176,8135.596840
77.405354,7025.327154,1071.984525,8633.303941
77.405978,6565.905214,880.558717,8977.870395
77.406601,4441.078746,957.129040,10030.712339
77.407225,2928.814862,497.707101,12040.683323
77.407848,2718.246474,-401.994197,13552.947206
77.408472,3292.523898,-899.701298,13744.373014
77.409095,4728.217458,-976.271621,12212.966550
77.409719,5704.489078,-784.845813,10202.995566
77.410342,5532.205851,114.855485,8843.872330
77.410966,4938.785846,784.845813,7886.743290
77.411589,3235.096155,1378.265818,7484.749093
77.412213,1569.691626,1263.410333,7408.178770
77.412836,-593.420005,133.998066,7293.323285
77.413460,-3675.375514,-823.130974,7886.743290
77.414083,-6317.051664,-1129.412267,8556.733618
77.414707,-8039.883936,-1129.412267,10088.140082
77.415330,-8422.735552,-191.425808,11772.687192
77.415954,-7829.315547,669.990328,13399.806560
77.416577,-7791.030386,1339.980656,13935.798822
77.417201,-7389.036189,1129.412267,12576.675586
77.417824,-6470.192310,382.851616,10317.851051
77.418448,-4039.084549,-689.132909,8575.876198
77.419071,-2029.113565,-708.275490,7465.606512
77.419695,-2335.394858,95.712904,7503.891674
77.420318,-3215.953574,306.281293,7523.034254
77.420942,-4421.936165,287.138712,7637.889739
77.421565,-4632.504554,-153.140646,7733.602643
77.422189,-4115.654872,-133.998066,8193.024582
77.422812,-3828.516160,229.710970,9494.720077
77.423436,-3311.666478,516.849682,11006.983960
77.424059,-2947.957443,363.709035,12576.675586
77.424683,-1684.547110,19.142581,13610.374949
77.425306,1225.125171,-727.418070,13150.953010
77.425930,5187.639397,-1205.982590,11734.402030
77.426553,8805.587168,-976.271621,9360.722011
77.427177,9973.284597,38.285162,7676.174901
77.427800,8958.727814,1818.545176,6757.331022
77.428424,7101.897477,2622.533570,7121.040058
77.429047,5972.485210,2469.392923,8059.026517
77.429671,6929.614250,1339.980656,8518.448456
77.430294,7159.325219,880.558717,8709.874264
77.430918,5187.639397,995.414202,9590.432981
77.431541,3522.234867,689.132909,11121.839445
77.432165,2507.678085,-287.138712,13093.525267
77.432788,3101.098090,-746.560651,13820.943338
77.433411,4479.363907,-1129.412267,12768.101394
77.434035,5245.067139,-631.705166,11121.839445
77.434658,5876.772306,-114.855485,9533.005238
77.435282,5225.924558,555.134843,8231.309744
77.435905,3694.518094,1263.410333,7848.458128
77.436529,2507.678085,1148.554848,7274.180704
77.437152,229.710970,593.420005,7101.897477
77.437776,-2297.109696,-478.564520,7484.749093
77.438399,-5245.067139,-1052.841944,8212.167163
77.439023,-7618.747158,-957.129040,9437.292334
77.439646,-8537.591037,-382.851616,11102.696864
77.440270,-8212.167163,325.423874,12863.814298
77.440893,-7618.747158,995.414202,13840.085918
77.441517,-7389.036189,1129.412267,13170.095590
77.442140,-7140.182638,861.416136,11332.407834
77.442764,-4900.500685,-363.709035,9303.294269
77.443387,-2794.816797,-784.845813,8039.883936
77.444011,-1933.400661,-191.425808,7542.176835
77.444634,-2641.676150,210.568389,7484.749093
77.445258,-4173.082614,421.136778,7580.461997
77.445881,-4421.936165,-153.140646,7465.606512
77.446505,-4689.932296,-440.279358,8001.598774
77.447128,-4077.369710,114.855485,8997.012976
77.447752,-3445.664544,555.134843,10375.278794
77.448375,-3177.668413,516.849682,12155.538808
77.448999,-1971.685822,76.570323,13227.523333
77.449622,38.285162,-440.279358,13323.236237
77.450246,3732.803256,-937.986459,12327.822035
77.450869,7523.034254,-1033.699363,10298.708470
77.451493,9533.005238,-287.138712,8461.020714
77.452116,9571.290400,1148.554848,6929.614250
77.452740,7791.030386,2258.824534,7006.184573
77.453363,6240.481341,2584.248408,7752.745224
77.453987,6872.186507,1569.691626,8059.026517
77.454610,7101.897477,1052.841944,8556.733618
77.455234,6106.483275,1052.841944,9265.009107
77.455857,4173.082614,918.843878,10394.421374
77.456481,2737.389054,153.140646,12480.962682
77.457104,2833.101958,-555.134843,13610.374949
77.457728,3751.945837,-1014.556782,13227.523333
77.458351,4900.500685,-746.560651,11830.114934
77.458975,5857.629725,-459.421939,9992.427178
77.459598,5359.922624,306.281293,8786.444587
77.460222,4345.365842,995.414202,8001.598774
77.460845,2852.244539,1263.410333,7312.465866
77.461468,823.130974,937.986459,7235.895542
77.462092,-1301.695494,-344.566454,7312.465866
77.462715,-4364.508422,-937.986459,7886.743290
77.463339,-6814.758765,-1071.984525,8843.872330
77.463962,-8173.882002,-880.558717,10528.419440
77.464586,-8422.735552,172.283227,12155.538808
77.465209,-7657.032320,669.990328,13591.232368
77.465833,-7618.747158,1129.412267,13648.660110
77.466456,-7159.325219,861.416136,12040.683323
77.467080,-5666.203917,-114.855485,9858.429112
77.467703,-3656.232933,-631.705166,8403.592971
77.468327,-2048.256146,-344.566454,7523.034254
77.468950,-2756.531635,210.568389,7618.747158
77.469574,-3713.660675,401.994197,7618.747158
77.470197,-4460.221326,19.142581,7446.463931
77.470821,-4613.361973,-440.279358,7676.174901
77.471444,-4000.799387,-114.855485,8346.165229
77.472068,-3656.232933,401.994197,9743.573627
77.472691,-3273.381317,669.990328,11657.831707
77.473315,-2526.820666,382.851616,12940.384621
77.473938,-976.271621,-153.140646,13610.374949
77.474562,2469.392923,-880.558717,12844.671717
77.475185,6183.053598,-1225.125171,11083.554283
77.475809,9111.868461,-650.847747,8977.870395
77.476432,9781.858789,497.707101,7293.323285
77.477056,8231.309744,2105.683888,6948.756830
77.477679,6680.760699,2526.820666,7369.893608
77.478303,6393.621987,2048.256146,8097.311678
77.478926,7025.327154,1110.269686,8575.876198
77.479550,6872.186507,823.130974,8824.729749
77.480173,4728.217458,918.843878,9820.143950
77.480797,3254.238736,535.992262,11715.259450
77.481420,2775.674216,-382.851616,13399.806560
77.482043,3330.809059,-746.560651,13782.658176
77.482667,4785.645200,-842.273555,12423.534939
77.483290,5666.203917,-574.277424,10566.704602
77.483913,5436.492947,191.425808,9245.866526
77.484536,4843.072942,727.418070,8212.167163
77.485159,3177.668413,1244.267752,7580.461997
77.485783,1761.117434,1052.841944,7235.895542
77.486406,-459.421939,172.283227,7082.754896
77.487029,-3311.666478,-689.132909,7599.604578
77.487652,-6144.768437,-937.986459,8499.305875
77.488275,-7867.600709,-1052.841944,9915.856854
77.488899,-8384.450390,-306.281293,11485.548480
77.489522,-7810.172966,440.279358,13150.953010
77.490145,-7657.032320,1014.556782,13763.515595
77.490768,-7255.038123,899.701298,12787.243974
77.491391,-6642.475538,440.279358,10700.702667
77.492015,-4364.508422,-516.849682,8863.014910
77.492638,-2373.680019,-516.849682,7676.174901
77.493261,-2507.678085,38.285162,7637.889739
77.493884,-3215.953574,172.283227,7523.034254
77.494507,-4536.791650,114.855485,7637.889739
77.495131,-4651.647134,-306.281293,7523.034254
77.495754,-4211.367776,-267.996131,8001.598774
77.496377,-3732.803256,267.996131,9284.151688
77.497000,-3081.955509,727.418070,10930.413637
77.497623,-2756.531635,574.277424,12423.534939
77.498247,-1512.263883,133.998066,13552.947206
77.498870,1167.697429,-650.847747,13208.380752
77.499493,4804.787781,-1129.412267,11925.827838
77.500116,8346.165229,-957.129040,9667.003304
77.500739,9762.716208,-38.285162,7905.885870
77.501362,9035.298138,1646.261949,6891.329088
77.501986,7331.608446,2469.392923,7063.612315
77.502609,6087.340694,2507.678085,7982.456194
77.503232,6910.471669,1416.550979,8441.878133
77.503855,7025.327154,918.843878,8575.876198
77.504478,5359.922624,995.414202,9456.434915
77.505102,4019.941968,727.418070,10853.843314
77.505725,2928.814862,-172.283227,12978.669782
77.506348,3177.668413,-650.847747,13840.085918
77.506971,4364.508422,-1110.269686,12882.956878
77.507594,5053.641331,-708.275490,11217.552349
77.508218,5608.776174,-229.710970,9571.290400
77.508841,5111.069074,382.851616,8365.307810
77.509464,3541.377448,1339.980656,7944.171032
77.510087,2354.537438,1301.695494,7293.323285
77.510710,153.140646,650.847747,7101.897477
77.511334,-2297.109696,-497.707101,7523.034254
77.511957,-5130.211654,-1225.125171,8078.169098
77.512580,-7427.321350,-1167.697429,9303.294269
77.513203,-8346.165229,-574.277424,10987.841379
77.513826,-8269.594906,325.423874,12672.388490
77.514450,-7637.889739,1014.556782,13820.943338
77.515073,-7312.465866,1129.412267,13265.808494
77.515696,-7025.327154,861.416136,11542.976222
77.516319,-4881.358104,-382.851616,9360.722011
77.516942,-3005.385186,-689.132909,7963.313613
77.517566,-2258.824534,-210.568389,7580.461997
77.518189,-3005.385186,114.855485,7637.889739
77.518812,-4307.080680,363.709035,7733.602643
77.519435,-4498.506488,-172.283227,7446.463931
77.520058,-4326.223261,-325.423874,7791.030386
77.520682,-3790.230998,133.998066,8767.302006
77.521305,-3158.525832,555.134843,10222.138147
77.521928,-3101.098090,650.847747,12059.825904
77.522551,-2048.256146,172.283227,13246.665914
77.523174,0.000000,-497.707101,13399.806560
77.523798,3656.232933,-1052.841944,12461.820101
77.524421,7599.604578,-1263.410333,10470.991698
77.525044,9743.573627,-344.566454,8518.448456
77.525667,9686.145885,1225.125171,6948.756830
77.526290,7637.889739,2507.678085,6948.756830
77.526914,5934.200048,2660.818731,7886.743290
77.527537,6546.762634,1588.834206,8193.024582
77.528160,6910.471669,918.843878,8614.161360
77.528783,6202.196179,861.416136,9092.725880
77.529406,4594.219392,899.701298,10222.138147
77.530030,3235.096155,229.710970,12480.962682
77.530653,3024.527766,-363.709035,13725.230434
77.531276,3790.230998,-1071.984525,13304.093656
77.531899,4689.932296,-784.845813,11868.400096
77.532522,5742.774240,-497.707101,9896.714274
77.533146,5340.780043,325.423874,8786.444587
77.533769,4268.795518,1110.269686,8154.739421
77.534392,2660.818731,1359.123237,7408.178770
77.535015,574.277424,1014.556782,7389.036189
77.535638,-1416.550979,-363.709035,7312.465866
77.536262,-4383.651003,-1148.554848,7867.600709
77.536885,-6719.045861,-1244.267752,8729.016845
77.537508,-8097.311678,-880.558717,10260.423309
77.538131,-8461.020714,153.140646,12174.681389
77.538754,-7676.174901,880.558717,13629.517530
77.539378,-7637.889739,1339.980656,13725.230434
77.540001,-7197.610381,1052.841944,12251.251712
77.540624,-5608.776174,-95.712904,9781.858789
77.541247,-3790.230998,-842.273555,8384.450390
77.541870,-2316.252277,-516.849682,7484.749093
77.542494,-2909.672282,57.427742,7771.887805
77.543117,-3905.086483,325.423874,7733.602643
77.543740,-4479.363907,19.142581,7484.749093
77.544363,-4498.506488,-306.281293,7676.174901
77.544986,-3885.943902,0.000000,8250.452325
77.545610,-3407.379382,478.564520,9647.860723
77.546233,-3101.098090,727.418070,11523.833642
77.546856,-2201.396792,325.423874,12902.099459
77.547479,-708.275490,-248.853550,13514.662045
77.548102,2699.103893,-1033.699363,12902.099459
77.548726,6470.192310,-1320.838075,11140.982026
77.549349,9303.294269,-689.132909,9035.298138
77.549972,9858.429112,708.275490,7216.752962
77.550595,8116.454259,2373.680019,6948.756830
77.551218,6317.051664,2660.818731,7484.749093
77.551842,6278.766502,1914.258080,8078.169098
77.552465,6948.756830,1071.984525,8575.876198
77.553088,6853.043926,765.703232,8824.729749
77.553711,5015.356170,937.986459,9743.573627
77.554334,3445.664544,421.136778,11772.687192
77.554958,2967.100024,-459.421939,13323.236237
77.555581,3330.809059,-803.988394,13610.374949
77.556204,4613.361973,-746.560651,12308.679454
77.556827,5666.203917,-574.277424,10470.991698
77.557450,5321.637462,191.425808,9341.579430
77.558074,4594.219392,746.560651,8269.594906
77.558697,2928.814862,1225.125171,7542.176835
77.559320,1110.269686,1091.127106,7312.465866
77.559943,-765.703232,0.000000,7140.182638
77.560566,-3579.662610,-842.273555,7676.174901
77.561190,-6087.340694,-1033.699363,8461.020714
77.561813,-7771.887805,-957.129040,9896.714274
77.562436,-8288.737486,-76.570323,11466.405899
77.563059,-7695.317482,574.277424,13246.665914
77.563682,-7542.176835,1110.269686,13820.943338
77.564306,-7101.897477,899.701298,12634.103328
77.564929,-6393.621987,229.710970,10451.849117
77.565552,-4421.936165,-631.705166,8843.872330
77.566175,-2565.105827,-516.849682,7695.317482
77.566798,-2813.959378,38.285162,7771.887805
77.567422,-3388.236802,248.853550,7618.747158
77.568045,-4460.221326,38.285162,7542.176835
77.568668,-4632.504554,-344.566454,7561.319416
77.569291,-4077.369710,-229.710970,8039.883936
77.569914,-3656.232933,344.566454,9341.579430
77.570538,-2967.100024,650.847747,11006.983960
77.571161,-2297.109696,363.709035,12461.820101
77.571784,-1167.697429,133.998066,13495.519464
77.572407,1665.404530,-689.132909,13131.810429
77.573030,5111.069074,-1091.127106,11791.829773
77.573654,8537.591037,-823.130974,9552.147819
77.574277,9781.858789,114.855485,7791.030386
77.574900,8633.303941,1799.402595,7006.184573
77.575523,6872.186507,2507.678085,7255.038123
77.576146,5953.342629,2316.252277,7944.171032
77.576770,6833.901346,1301.695494,8403.592971
77.577393,7178.467800,899.701298,8575.876198
77.578016,5551.348432,976.271621,9513.862658
77.578639,4096.512291,823.130974,11140.982026
77.579262,3101.098090,-287.138712,13131.810429
77.579886,3235.096155,-765.703232,13610.374949
77.580509,4421.936165,-1110.269686,12557.533005
77.581132,5225.924558,-880.558717,10930.413637
77.581755,5283.352301,-19.142581,9552.147819
77.582378,4804.787781,708.275490,8441.878133
77.583002,3139.383251,1435.693560,7925.028451
77.583625,1741.974853,1263.410333,7350.751027
77.584248,-401.994197,363.709035,7063.612315
77.584871,-2813.959378,-880.558717,7542.176835
77.585494,-5359.922624,-1378.265818,8097.311678
77.586118,-7427.321350,-1225.125171,9379.864592
77.586741,-8307.880067,-325.423874,11026.126541
77.587364,-8097.311678,631.705166,12844.671717
77.587987,-7829.315547,1225.125171,13935.798822
77.588610,-7312.465866,1148.554848,13036.097525
77.589233,-6719.045861,612.562586,11064.411702
77.589856,-4594.219392,-555.134843,9092.725880
77.590479,-2833.101958,-803.988394,7867.600709
77.591102,-2756.531635,-114.855485,7886.743290
77.591725,-3292.523898,95.712904,7810.172966
77.592348,-4402.793584,172.283227,7791.030386
77.592972,-4402.793584,-191.425808,7465.606512
77.593595,-3962.514226,-172.283227,7733.602643
77.594218,-3637.090352,440.279358,8901.300072
77.594841,-3024.527766,765.703232,10394.421374
77.595464,-2699.103893,478.564520,12098.111066
77.596087,-1627.119368,76.570323,13304.093656
77.596710,765.703232,-746.560651,13304.093656
77.597333,4307.080680,-1225.125171,12289.536874
77.597956,8135.596840,-1071.984525,10107.282662
77.598579,9781.858789,-76.570323,8307.880067
77.599202,9265.009107,1741.974853,7063.612315
77.599826,7312.465866,2622.533570,7121.040058
77.600449,5915.057467,2641.676150,8001.598774
77.601072,6757.331022,1397.408398,8288.737486
77.601695,7140.182638,669.990328,8461.020714
77.602318,5857.629725,842.273555,9188.438784
77.602941,4364.508422,784.845813,10528.419440
77.603564,3120.240670,-57.427742,12787.243974
77.604187,3158.525832,-382.851616,13706.087853
77.604810,4211.367776,-976.271621,12882.956878
77.605433,5034.498750,-555.134843,11408.978157
77.606056,5608.776174,-172.283227,9858.429112
77.606680,5149.354235,344.566454,8748.159426
77.607303,3522.234867,1129.412267,8288.737486
77.607926,2258.824534,1129.412267,7503.891674
77.608549,38.285162,574.277424,7178.467800
77.609172,-2239.681954,-459.421939,7350.751027
77.609795,-4881.358104,-1071.984525,7829.315547
77.610418,-7121.040058,-1033.699363,8863.014910
77.611041,-8078.169098,-363.709035,10547.562021
77.611664,-8039.883936,344.566454,12423.534939
77.612287,-7599.604578,861.416136,13744.373014
77.612910,-7369.893608,976.271621,13476.376883
77.613533,-7044.469734,631.705166,11734.402030
77.614157,-5072.783912,-459.421939,9513.862658
77.614780,-3426.521963,-631.705166,8173.882002
77.615403,-2622.533570,-114.855485,7733.602643
77.616026,-3215.953574,229.710970,7791.030386
77.616649,-4364.508422,401.994197,7791.030386
77.617272,-4402.793584,-210.568389,7408.178770
77.617895,-4230.510357,-478.564520,7561.319416
77.618518,-3847.658741,153.140646,8575.876198
77.619141,-3139.383251,612.562586,9992.427178
77.619764,-2890.529701,727.418070,11772.687192
77.620387,-1818.545176,325.423874,13036.097525
77.621011,191.425808,-401.994197,13399.806560
77.621634,3637.090352,-1033.699363,12576.675586
77.622257,7389.036189,-1129.412267,10662.417506
77.622880,9513.862658,-382.851616,8824.729749
77.623503,9475.577496,1129.412267,7178.467800
77.624126,7618.747158,2258.824534,7082.754896
77.624749,6106.483275,2526.820666,7886.743290
77.625372,6757.331022,1665.404530,8135.596840
77.625995,7025.327154,1033.699363,8441.878133
77.626618,6163.911018,937.986459,8997.012976
77.627241,4747.360038,842.273555,10049.854920
77.627865,3273.381317,95.712904,12327.822035
77.628488,3196.810994,-382.851616,13533.804626
77.629111,3981.656806,-995.414202,13227.523333
77.629734,4766.502619,-593.420005,11925.827838
77.630357,5685.346498,-248.853550,10145.567824
77.630980,5130.211654,267.996131,9054.440718
77.631603,3828.516160,937.986459,8403.592971
77.632226,2507.678085,1129.412267,7484.749093
77.632849,325.423874,823.130974,7255.038123
77.633472,-1741.974853,-210.568389,7293.323285
77.634095,-4479.363907,-918.843878,7848.458128
77.634719,-6680.760699,-1167.697429,8767.302006
77.635342,-7771.887805,-861.416136,10164.710405
77.635965,-8097.311678,114.855485,11830.114934
77.636588,-7523.034254,727.418070,13361.521398
77.637211,-7580.461997,1167.697429,13591.232368
77.637834,-7197.610381,899.701298,12212.966550
77.638457,-5493.920690,-191.425808,10049.854920
77.639080,-3732.803256,-650.847747,8537.591037
77.639703,-2526.820666,-363.709035,7810.172966
77.640326,-3215.953574,57.427742,7829.315547
77.640949,-4115.654872,210.568389,7733.602643
77.641572,-4402.793584,-210.568389,7293.323285
77.642196,-4345.365842,-421.136778,7542.176835
77.642819,-3771.088418,114.855485,8288.737486
77.643442,-3196.810994,535.992262,9705.288466
77.644065,-2890.529701,784.845813,11581.261384
77.644688,-1952.543242,248.853550,12768.101394
77.645311,-344.566454,-382.851616,13304.093656
77.645934,2967.100024,-1110.269686,12729.816232
77.646557,6738.188442,-1225.125171,11121.839445
77.647180,9207.581365,-459.421939,9188.438784
77.647803,9667.003304,1033.699363,7408.178770
77.648426,7982.456194,2354.537438,7140.182638
77.649050,6183.053598,2565.105827,7695.317482
77.649673,6355.336826,1780.260014,8001.598774
77.650296,6872.186507,957.129040,8327.022648
77.650919,6795.616184,842.273555,8729.016845
77.651542,5206.781978,1033.699363,9801.001370
77.652165,3732.803256,382.851616,12059.825904
77.652788,3101.098090,-306.281293,13476.376883
77.653411,3656.232933,-995.414202,13380.663979
77.654034,4728.217458,-899.701298,12059.825904
77.654657,5685.346498,-516.849682,10336.993632
77.655280,5149.354235,267.996131,9303.294269
77.655904,4134.797453,880.558717,8537.591037
77.656527,2641.676150,1225.125171,7695.317482
77.657150,669.990328,1033.699363,7350.751027
77.657773,-1301.695494,-210.568389,7178.467800
77.658396,-4039.084549,-1014.556782,7599.604578
77.659019,-6336.194245,-1282.552914,8365.307810
77.659642,-7752.745224,-995.414202,9801.001370
77.660265,-8346.165229,95.712904,11619.546546
77.660888,-7523.034254,784.845813,13265.808494
77.661511,-7446.463931,1282.552914,13782.658176
77.662134,-7101.897477,1033.699363,12500.105262
77.662758,-5991.627790,76.570323,10241.280728
77.663381,-4192.225195,-689.132909,8748.159426
77.664004,-2794.816797,-497.707101,7771.887805
77.664627,-3215.953574,38.285162,7944.171032
77.665250,-3943.371645,229.710970,7886.743290
77.665873,-4383.651003,-57.427742,7446.463931
77.666496,-4364.508422,-325.423874,7542.176835
77.667119,-3790.230998,57.427742,7982.456194
77.667742,-3349.951640,555.134843,9360.722011
77.668365,-2947.957443,842.273555,11179.267187
77.668988,-1895.115499,325.423874,12576.675586
77.669611,-555.134843,-76.570323,13457.234302
77.670235,2545.963246,-957.129040,13016.954944
77.670858,5972.485210,-1225.125171,11389.835576
77.671481,8843.872330,-708.275490,9456.434915
77.672104,9667.003304,497.707101,7637.889739
77.672727,8193.024582,2067.398726,7140.182638
77.673350,6355.336826,2565.105827,7657.032320
77.673973,6010.770371,2009.970984,8020.741355
77.674596,6604.190376,1110.269686,8384.450390
77.675219,6987.041992,861.416136,8575.876198
77.675842,5666.203917,861.416136,9475.577496
77.676465,4211.367776,535.992262,11562.118803
77.677089,3407.379382,-344.566454,13284.951075
77.677712,3349.951640,-727.418070,13648.660110
77.678335,4383.651003,-880.558717,12346.964616
77.678958,5493.920690,-650.847747,10604.989763
77.679581,5245.067139,191.425808,9513.862658
77.680204,4594.219392,746.560651,8652.446522
77.680827,2718.246474,1416.550979,7886.743290
77.681450,823.130974,1186.840010,7446.463931
77.682073,-1129.412267,95.712904,7235.895542
77.682696,-3617.947771,-918.843878,7618.747158
77.683319,-5876.772306,-1263.410333,8135.596840
77.683943,-7369.893608,-1014.556782,9475.577496
77.684566,-8116.454259,57.427742,11198.409768
77.685189,-7599.604578,746.560651,13036.097525
77.685812,-7523.034254,1225.125171,13916.656242
77.686435,-7082.754896,976.271621,12863.814298
77.687058,-6221.338760,133.998066,10624.132344
77.687681,-4536.791650,-708.275490,8882.157491
77.688304,-3062.812928,-555.134843,7771.887805
77.688928,-3426.521963,-38.285162,7944.171032
77.689551,-3905.086483,153.140646,7925.028451
77.690174,-4517.649069,-38.285162,7771.887805
77.690797,-4383.651003,-363.709035,7484.749093
77.691420,-3694.518094,-229.710970,7771.887805
77.692043,-3369.094221,401.994197,8958.727814
77.692667,-2909.672282,784.845813,10738.987829
77.693290,-2105.683888,497.707101,12366.107197
77.693913,-899.701298,114.855485,13457.234302
77.694536,1990.828403,-727.418070,13131.810429
77.695159,5379.065205,-1167.697429,11868.400096
77.695782,8518.448456,-842.273555,9724.431046
77.696406,9686.145885,229.710970,7963.313613
77.697029,8518.448456,1875.972918,7178.467800
77.697652,6585.047795,2565.105827,7484.749093
77.698275,5895.914886,2182.254211,8078.169098
77.698898,6699.903280,1186.840010,8422.735552
77.699521,7235.895542,784.845813,8441.878133
77.700145,5838.487144,918.843878,9284.151688
77.700768,4249.652938,689.132909,11006.983960
77.701391,3388.236802,-325.423874,13016.954944
77.702014,3235.096155,-708.275490,13533.804626
77.702637,4326.223261,-880.558717,12480.962682
77.703260,5359.922624,-593.420005,10911.271056
77.703883,5206.781978,191.425808,9743.573627
77.704507,4689.932296,669.990328,8671.589102
77.705130,2833.101958,1263.410333,8059.026517
77.705753,1091.127106,1071.984525,7446.463931
77.706376,-861.416136,133.998066,7063.612315
77.706999,-3311.666478,-880.558717,7446.463931
77.707622,-5570.491013,-1148.554848,8116.454259
77.708246,-7274.180704,-1052.841944,9360.722011
77.708869,-8097.311678,-153.140646,10949.556218
77.709492,-7695.317482,631.705166,12825.529136
77.710115,-7580.461997,1033.699363,13878.371080
77.710738,-7082.754896,899.701298,12921.242040
77.711361,-6489.334891,363.709035,10911.271056
77.711985,-4632.504554,-555.134843,9150.153622
77.712608,-3081.955509,-478.564520,7944.171032
77.713231,-3330.809059,0.000000,8116.454259
77.713854,-3809.373579,191.425808,7963.313613
77.714477,-4421.936165,-19.142581,7752.745224
77.715100,-4268.795518,-344.566454,7350.751027
77.715724,-3694.518094,-229.710970,7676.174901
77.716347,-3445.664544,459.421939,8748.159426
77.716970,-2986.242605,823.130974,10451.849117
77.717593,-2335.394858,535.992262,12078.968485
77.718216,-1186.840010,210.568389,13304.093656
77.718839,1569.691626,-880.558717,13150.953010
77.719463,4938.785846,-1244.267752,12136.396227
77.720086,8288.737486,-1033.699363,9934.999435
77.720709,9571.290400,133.998066,8193.024582
77.721332,8729.016845,1837.687757,7255.038123
77.721955,7025.327154,2565.105827,7446.463931
77.722578,5991.627790,2411.965181,8173.882002
77.723202,6642.475538,1263.410333,8499.305875
77.723825,7025.327154,727.418070,8365.307810
77.724448,5704.489078,784.845813,9150.153622
77.725071,4536.791650,593.420005,10700.702667
77.725694,3522.234867,-210.568389,12729.816232
77.726317,3369.094221,-459.421939,13572.089787
77.726940,4364.508422,-727.418070,12614.960747
77.727564,5149.354235,-555.134843,11160.124606
77.728187,5225.924558,76.570323,9896.714274
77.728810,4862.215523,459.421939,8920.442653
77.729433,3062.812928,1110.269686,8231.309744
77.730056,1512.263883,995.414202,7484.749093
77.730679,-689.132909,325.423874,7140.182638
77.731303,-3043.670347,-593.420005,7446.463931
77.731926,-5455.635528,-1014.556782,7982.456194
77.732549,-7293.323285,-1110.269686,9131.011042
77.733172,-8078.169098,-287.138712,10643.274925
77.733795,-7714.460062,478.564520,12480.962682
77.734418,-7523.034254,1014.556782,13648.660110
77.735042,-7044.469734,957.129040,13036.097525
77.735665,-6699.903280,555.134843,11255.837510
77.736288,-4651.647134,-459.421939,9360.722011
77.736911,-3235.096155,-574.277424,8020.741355
77.737534,-3254.238736,-57.427742,8039.883936
77.738157,-3790.230998,19.142581,7944.171032
77.738781,-4536.791650,0.000000,7829.315547
77.739404,-4421.936165,-306.281293,7503.891674
77.740027,-3866.801322,-248.853550,7657.032320
77.740650,-3464.807125,421.136778,8729.016845
77.741273,-2909.672282,823.130974,10202.995566
77.741896,-2373.680019,497.707101,11810.972354
77.742520,-1263.410333,133.998066,13208.380752
77.743143,1359.123237,-803.988394,13227.523333
77.743766,4670.789715,-1225.125171,12346.964616
77.744389,8212.167163,-976.271621,10317.851051
77.745012,9667.003304,76.570323,8461.020714
77.745635,8920.442653,1703.689691,7274.180704
77.746259,7006.184573,2545.963246,7350.751027
77.746882,5666.203917,2373.680019,8078.169098
77.747505,6451.049730,1263.410333,8365.307810
77.748128,7082.754896,784.845813,8307.880067
77.748751,5991.627790,842.273555,8977.870395
77.749374,4823.930362,803.988394,10604.989763
77.749997,3637.090352,-114.855485,12729.816232
77.750621,3369.094221,-497.707101,13533.804626
77.751244,4211.367776,-899.701298,12653.245909
77.751867,5015.356170,-669.990328,11255.837510
77.752490,5340.780043,57.427742,10068.997501
77.753113,5034.498750,497.707101,8977.870395
77.753736,3273.381317,1301.695494,8461.020714
77.754360,1569.691626,1186.840010,7523.034254
77.754983,-803.988394,421.136778,7159.325219
77.755606,-3062.812928,-765.703232,7274.180704
77.756229,-5264.209720,-1244.267752,7810.172966
77.756852,-7140.182638,-1167.697429,8863.014910
77.757475,-8001.598774,-287.138712,10566.704602
77.758099,-7714.460062,535.992262,12404.392358
77.758722,-7331.608446,1071.984525,13686.945272
77.759345,-6910.471669,1014.556782,13246.665914
77.759968,-6699.903280,516.849682,11504.691061
77.760591,-4881.358104,-497.707101,9399.007173
77.761214,-3560.520029,-669.990328,8173.882002
77.761838,-3369.094221,-95.712904,8001.598774
77.762461,-3885.943902,38.285162,8001.598774
77.763084,-4594.219392,76.570323,7905.885870
77.763707,-4441.078746,-267.996131,7446.463931
77.764330,-3885.943902,-267.996131,7580.461997
77.764953,-3522.234867,401.994197,8575.876198
77.765577,-2928.814862,727.418070,10030.712339
77.766200,-2335.394858,555.134843,11791.829773
77.766823,-1091.127106,172.283227,13131.810429
77.767446,1320.838075,-650.847747,13323.236237
77.768069,4536.791650,-1033.699363,12404.392358
77.768692,7886.743290,-899.701298,10451.849117
77.769315,9341.579430,19.142581,8595.018779
77.769939,8939.585234,1512.263883,7216.752962
77.770562,7121.040058,2431.107762,7293.323285
77.771185,5627.918755,2488.535504,8020.741355
77.771808,6412.764568,1416.550979,8288.737486
77.772431,6987.041992,803.988394,8403.592971
77.773054,6221.338760,899.701298,8997.012976
77.773678,5149.354235,727.418070,10356.136213
77.774301,3943.371645,-153.140646,12538.390424
77.774924,3560.520029,-497.707101,13514.662045
77.775547,4230.510357,-995.414202,12748.958813
77.776170,4900.500685,-631.705166,11428.120738
77.776793,5245.067139,-38.285162,10030.712339
77.777417,4823.930362,516.849682,9073.583299
77.778040,3120.240670,1282.552914,8614.161360
77.778663,1588.834206,1167.697429,7657.032320
77.779286,-650.847747,497.707101,7121.040058
77.779909,-2699.103893,-708.275490,7274.180704
77.780532,-4900.500685,-1282.552914,7829.315547
77.781156,-6853.043926,-1282.552914,8863.014910
77.781779,-7829.315547,-363.709035,10413.563955
77.782402,-7905.885870,535.992262,12251.251712
77.783025,-7580.461997,1071.984525,13610.374949
77.783648,-7140.182638,1091.127106,13304.093656
77.784271,-6814.758765,650.847747,11619.546546
77.784895,-4900.500685,-421.136778,9475.577496
77.785518,-3617.947771,-650.847747,8212.167163
77.786142,-3407.379382,-133.998066,8116.454259
77.786765,-3847.658741,57.427742,8020.741355
77.787389,-4555.934230,19.142581,8154.739421
77.788012,-4345.365842,-267.996131,7408.178770
77.788635,-3732.803256,-267.996131,7446.463931
77.789259,-3445.664544,421.136778,8441.878133
77.789882,-2775.674216,746.560651,9915.856854
77.790506,-2431.107762,631.705166,11562.118803
77.791129,-1378.265818,172.283227,13036.097525
77.791752,1052.841944,-727.418070,13208.380752
77.792376,4249.652938,-1205.982590,12557.533005
77.792999,7829.315547,-1091.127106,10624.132344
77.793623,9475.577496,-57.427742,8748.159426
77.794246,9131.011042,1454.836141,7350.751027
77.794869,7235.895542,2450.250342,7350.751027
77.795493,5685.346498,2584.248408,8059.026517
77.796116,6278.766502,1435.693560,8288.737486
77.796740,6891.329088,823.130974,8346.165229
77.797363,6240.481341,842.273555,8901.300072
77.797986,5245.067139,803.988394,10202.995566
77.798610,3962.514226,-76.570323,12461.820101
77.799233,3503.092286,-401.994197,13495.519464
77.799857,4134.797453,-995.414202,12768.101394
77.800480,4747.360038,-631.705166,11370.692995
77.801103,5206.781978,-95.712904,10049.854920
77.801727,4881.358104,497.707101,9054.440718
77.802350,3254.238736,1263.410333,8633.303941
77.802974,1875.972918,1225.125171,7752.745224
77.803597,-459.421939,669.990328,7235.895542
77.804220,-2622.533570,-535.992262,7274.180704
77.804844,-5015.356170,-1186.840010,7714.460062
77.805467,-7082.754896,-1205.982590,8729.016845
77.806091,-7944.171032,-440.279358,10317.851051
77.806714,-7963.313613,401.994197,12136.396227
77.807337,-7389.036189,1033.699363,13591.232368
77.807961,-6967.899411,1129.412267,13342.378818
77.808584,-6699.903280,612.562586,11772.687192
77.809208,-4919.643266,-382.851616,9475.577496
77.809831,-3732.803256,-631.705166,8173.882002
77.810454,-3464.807125,-172.283227,8001.598774
77.811078,-3962.514226,0.000000,8135.596840
77.811701,-4728.217458,76.570323,8212.167163
77.812325,-4383.651003,-248.853550,7580.461997
77.812948,-3771.088418,-363.709035,7465.606512
77.813572,-3445.664544,382.851616,8384.450390
77.814195,-2813.959378,784.845813,9762.716208
77.814818,-2431.107762,784.845813,11428.120738
77.815442,-1320.838075,153.140646,12882.956878
77.816065,1014.556782,-650.847747,13265.808494
77.816689,4249.652938,-1148.554848,12672.388490
77.817312,7791.030386,-1091.127106,10777.272990
77.817935,9437.292334,-172.283227,8824.729749
77.818559,9035.298138,1454.836141,7293.323285
77.819182,7255.038123,2431.107762,7274.180704
77.819806,5532.205851,2488.535504,8020.741355
77.820429,6297.909083,1512.263883,8365.307810
77.821052,6853.043926,784.845813,8403.592971
77.821676,6297.909083,823.130974,8901.300072
77.822299,5359.922624,708.275490,10068.997501
77.822923,4058.227130,-114.855485,12289.536874
77.823546,3694.518094,-421.136778,13476.376883
77.824169,4230.510357,-957.129040,12787.243974
77.824793,4823.930362,-555.134843,11562.118803
77.825416,5283.352301,-19.142581,10222.138147
77.826040,5034.498750,421.136778,9245.866526
77.826663,3273.381317,1225.125171,8767.302006
77.827286,1741.974853,1244.267752,7733.602643
77.827910,-708.275490,650.847747,7216.752962
77.828533,-2775.674216,-631.705166,7331.608446
77.829157,-4977.071008,-1282.552914,7733.602643
77.829780,-6833.901346,-1339.980656,8690.731683
77.830403,-7676.174901,-440.279358,10126.425243
77.831027,-7771.887805,555.134843,11925.827838
77.831650,-7427.321350,1167.697429,13572.089787
77.832274,-7159.325219,1110.269686,13495.519464
77.832897,-6891.329088,516.849682,11868.400096
77.833520,-4977.071008,-555.134843,9571.290400
77.834144,-3809.373579,-803.988394,8173.882002
77.834767,-3541.377448,-153.140646,7963.313613
77.835391,-4019.941968,95.712904,8116.454259
77.836014,-4651.647134,153.140646,8231.309744
77.836637,-4479.363907,-133.998066,7618.747158
77.837261,-3905.086483,-344.566454,7484.749093
77.837884,-3522.234867,421.136778,8327.022648
77.838508,-2737.389054,669.990328,9628.718142
77.839131,-2258.824534,612.562586,11351.550414
77.839755,-1052.841944,191.425808,12882.956878
77.840378,1129.412267,-516.849682,13323.236237
77.841001,4211.367776,-918.843878,12710.673651
77.841625,7580.461997,-937.986459,10777.272990
77.842248,9226.723946,-153.140646,8958.727814
77.842872,9035.298138,1339.980656,7369.893608
77.843495,7197.610381,2258.824534,7293.323285
77.844118,5570.491013,2431.107762,8059.026517
77.844742,6240.481341,1473.978722,8365.307810
77.845365,6987.041992,823.130974,8422.735552
77.845989,6527.620053,861.416136,8977.870395
77.846612,5436.492947,765.703232,10068.997501
77.847235,4039.084549,-76.570323,12270.394293
77.847859,3503.092286,-535.992262,13342.378818
77.848482,4134.797453,-1091.127106,12614.960747
77.849106,4747.360038,-612.562586,11389.835576
77.849729,5283.352301,-19.142581,10260.423309
77.850352,4977.071008,631.705166,9341.579430
77.850976,3139.383251,1320.838075,8882.157491
77.851599,1665.404530,1167.697429,7791.030386
77.852223,-689.132909,516.849682,7197.610381
77.852846,-2679.961312,-669.990328,7197.610381
77.853469,-4843.072942,-1263.410333,7637.889739
77.854093,-6814.758765,-1110.269686,8709.874264
77.854716,-7771.887805,-210.568389,10202.995566
77.855340,-7925.028451,650.847747,12174.681389
77.855963,-7523.034254,1033.699363,13591.232368
77.856586,-7006.184573,976.271621,13323.236237
77.857210,-6680.760699,478.564520,11676.974288
77.857833,-5015.356170,-535.992262,9513.862658
77.858457,-3885.943902,-669.990328,8269.594906
77.859080,-3637.090352,-153.140646,8173.882002
77.859703,-3962.514226,0.000000,8250.452325
77.860327,-4709.074877,76.570323,8193.024582
77.860950,-4383.651003,-133.998066,7465.606512
77.861574,-3828.516160,-325.423874,7408.178770
77.862197,-3579.662610,325.423874,8346.165229
77.862820,-2833.101958,669.990328,9724.431046
77.863444,-2277.967115,669.990328,11408.978157
77.864067,-1014.556782,191.425808,12863.814298
77.864691,1263.410333,-555.134843,13265.808494
77.865314,4307.080680,-1033.699363,12576.675586
77.865938,7676.174901,-1014.556782,10758.130410
77.866561,9245.866526,-114.855485,8901.300072
77.867184,8939.585234,1435.693560,7389.036189
77.867808,7235.895542,2354.537438,7331.608446
77.868431,5685.346498,2411.965181,8097.311678
77.869055,6412.764568,1359.123237,8288.737486
77.869678,7006.184573,765.703232,8327.022648
77.870301,6393.621987,842.273555,8805.587168
77.870925,5206.781978,803.988394,10145.567824
77.871548,4019.941968,-114.855485,12270.394293
77.872172,3637.090352,-459.421939,13361.521398
77.872795,4287.938099,-918.843878,12634.103328
77.873418,4862.215523,-574.277424,11428.120738
77.874042,5206.781978,57.427742,10260.423309
77.874665,4881.358104,516.849682,9360.722011
77.875289,3139.383251,1186.840010,8824.729749
77.875912,1588.834206,976.271621,7771.887805
77.876535,-803.988394,497.707101,7274.180704
77.877159,-3043.670347,-593.420005,7389.036189
77.877782,-5053.641331,-1167.697429,7695.317482
77.878406,-6833.901346,-1225.125171,8633.303941
77.879029,-7695.317482,-229.710970,10183.852986
77.879652,-7733.602643,612.562586,12002.398162
77.880276,-7446.463931,976.271621,13572.089787
77.880899,-7063.612315,918.843878,13323.236237
77.881523,-6604.190376,440.279358,11676.974288
77.882146,-4900.500685,-535.992262,9628.718142
77.882769,-3694.518094,-650.847747,8288.737486
77.883393,-3579.662610,-95.712904,8193.024582
77.884016,-4058.227130,38.285162,8231.309744
77.884640,-4651.647134,38.285162,8173.882002
77.885263,-4441.078746,-172.283227,7542.176835
77.885886,-3809.373579,-382.851616,7484.749093
77.886510,-3426.521963,401.994197,8403.592971
77.887133,-2699.103893,765.703232,9686.145885
77.887757,-2297.109696,727.418070,11389.835576
77.888380,-1186.840010,267.996131,12921.242040
77.889004,1263.410333,-650.847747,13246.665914
77.889627,4402.793584,-1148.554848,12672.388490
77.890250,7886.743290,-1033.699363,10700.702667
77.890874,9437.292334,-76.570323,8843.872330
77.891497,8958.727814,1550.549045,7369.893608
77.892121,7216.752962,2411.965181,7408.178770
77.892744,5608.776174,2507.678085,8193.024582
77.893368,6336.194245,1454.836141,8384.450390
77.893991,6948.756830,823.130974,8327.022648
77.894614,6259.623922,823.130974,8843.872330
77.895238,5264.209720,689.132909,10183.852986
77.895861,4077.369710,-133.998066,12346.964616
77.896485,3637.090352,-401.994197,13380.663979
77.897108,4287.938099,-880.558717,12614.960747
77.897731,4900.500685,-574.277424,11389.835576
77.898355,5187.639397,76.570323,10241.280728
77.898978,4977.071008,516.849682,9360.722011
77.899602,3177.668413,1148.554848,8805.587168
77.900225,1588.834206,1052.841944,7771.887805
77.900849,-937.986459,555.134843,7197.610381
77.901472,-3273.381317,-574.277424,7312.465866
77.902095,-5398.207786,-1110.269686,7714.460062
77.902719,-7063.612315,-1225.125171,8748.159426
77.903342,-7810.172966,-287.138712,10164.710405
77.903966,-7561.319416,497.707101,12059.825904
77.904589,-7312.465866,880.558717,13533.804626
77.905212,-6853.043926,842.273555,13323.236237
77.905836,-6508.477472,440.279358,11562.118803
77.906459,-4843.072942,-478.564520,9571.290400
77.907083,-3866.801322,-440.279358,8250.452325
77.907706,-3866.801322,0.000000,8269.594906
77.908330,-4326.223261,-38.285162,8212.167163
77.908953,-4709.074877,-114.855485,8193.024582
77.909576,-4364.508422,-248.853550,7484.749093
77.910200,-3579.662610,-344.566454,7369.893608
77.910823,-3407.379382,459.421939,8365.307810
77.911447,-2794.816797,861.416136,9858.429112
77.912070,-2163.111630,631.705166,11562.118803
77.912693,-957.129040,191.425808,12959.527202
77.913317,1607.976787,-746.560651,13208.380752
77.913940,4766.502619,-1091.127106,12519.247843
77.914564,8001.598774,-899.701298,10509.276859
77.915187,9265.009107,114.855485,8767.302006
77.915811,8690.731683,1646.261949,7465.606512
77.916434,6948.756830,2488.535504,7503.891674
77.917057,5589.633594,2277.967115,8135.596840
77.917681,6451.049730,1263.410333,8384.450390
77.918304,6987.041992,765.703232,8307.880067
77.918928,6278.766502,803.988394,8843.872330
77.919551,5302.494882,727.418070,10298.708470
77.920175,4019.941968,-95.712904,12423.534939
77.920798,3713.660675,-421.136778,13361.521398
77.921421,4326.223261,-746.560651,12576.675586
77.922045,5015.356170,-593.420005,11255.837510
77.922668,5187.639397,76.570323,10260.423309
77.923292,4919.643266,535.992262,9322.436850
77.923915,2890.529701,1263.410333,8786.444587
77.924538,1205.982590,995.414202,7791.030386
77.925162,-1091.127106,344.566454,7255.038123
77.925785,-3349.951640,-669.990328,7350.751027
77.926409,-5398.207786,-1129.412267,7733.602643
77.927032,-6948.756830,-1110.269686,8786.444587
77.927656,-7676.174901,-153.140646,10375.278794
77.928279,-7484.749093,669.990328,12155.538808
77.928902,-7408.178770,1052.841944,13591.232368
77.929526,-6967.899411,899.701298,13170.095590
77.930149,-6489.334891,172.283227,11447.263318
77.930773,-4728.217458,-689.132909,9475.577496
77.931396,-3675.375514,-555.134843,8173.882002
77.932019,-3828.516160,-76.570323,8231.309744
77.932643,-4326.223261,76.570323,8327.022648
77.933266,-4747.360038,0.000000,8173.882002
77.933890,-4555.934230,-229.710970,7427.321350
77.934513,-3713.660675,-306.281293,7312.465866
77.935137,-3292.523898,421.136778,8327.022648
77.935760,-2622.533570,727.418070,9954.142016
77.936383,-1914.258080,535.992262,11600.403965
77.937007,-784.845813,287.138712,13016.954944
77.937630,1799.402595,-612.562586,13170.095590
77.938254,4900.500685,-1091.127106,12442.677520
77.938877,8135.596840,-861.416136,10490.134278
77.939501,9456.434915,114.855485,8595.018779
77.940124,8709.874264,1741.974853,7427.321350
77.940747,6853.043926,2565.105827,7523.034254
77.941371,5647.061336,2277.967115,8193.024582
77.941994,6297.909083,1282.552914,8499.305875
77.942618,7044.469734,708.275490,8384.450390
77.943241,6278.766502,765.703232,8882.157491
77.943864,5321.637462,612.562586,10356.136213
77.944488,4115.654872,-172.283227,12480.962682
77.945111,3656.232933,-459.421939,13418.949141
77.945735,4345.365842,-669.990328,12557.533005
77.946358,5225.924558,-593.420005,11160.124606
77.946982,5091.926493,133.998066,10183.852986
77.947605,4689.932296,497.707101,9341.579430
77.948228,2660.818731,1186.840010,8671.589102
77.948852,937.986459,957.129040,7810.172966
77.949475,-1301.695494,248.853550,7216.752962
77.950099,-3751.945837,-708.275490,7312.465866
77.950722,-5666.203917,-1129.412267,7791.030386
77.951345,-7082.754896,-995.414202,8843.872330
77.951969,-7695.317482,-153.140646,10413.563955
77.952592,-7446.463931,574.277424,12327.822035
77.953216,-7293.323285,918.843878,13629.517530
77.953839,-6929.614250,727.418070,13074.382686
77.954463,-6317.051664,153.140646,11160.124606
77.955086,-4536.791650,-593.420005,9418.149754
77.955709,-3713.660675,-306.281293,8135.596840
77.956333,-4134.797453,38.285162,8403.592971
77.956956,-4632.504554,172.283227,8365.307810
77.957580,-4823.930362,-191.425808,8097.311678
77.958203,-4345.365842,-421.136778,7427.321350
77.958827,-3483.949706,-306.281293,7369.893608
77.959450,-3254.238736,382.851616,8422.735552
77.960073,-2775.674216,918.843878,10107.282662
77.960697,-1818.545176,650.847747,11676.974288
77.961320,-516.849682,210.568389,13131.810429
77.961944,2335.394858,-784.845813,13150.953010
77.962567,5493.920690,-1110.269686,12193.823970
77.963190,8384.450390,-784.845813,10202.995566
77.963814,9418.149754,172.283227,8461.020714
77.964437,8269.594906,1741.974853,7446.463931
77.965061,6336.194245,2392.822600,7771.887805
77.965684,5493.920690,2201.396792,8269.594906
77.966308,6144.768437,1225.125171,8480.163294
77.966931,6929.614250,861.416136,8288.737486
77.967554,6451.049730,899.701298,8882.157491
77.968178,5493.920690,689.132909,10758.130410
77.968801,4307.080680,-153.140646,12634.103328
77.969425,3809.373579,-593.420005,13323.236237
77.970048,4287.938099,-823.130974,12366.107197
77.970671,5206.781978,-669.990328,10892.128475
77.971295,5053.641331,191.425808,10011.569758
77.971918,4498.506488,631.705166,9284.151688
77.972542,2545.963246,1397.408398,8499.305875
77.973165,555.134843,1186.840010,7714.460062
77.973789,-1722.832272,325.423874,7255.038123
77.974412,-4096.512291,-880.558717,7331.608446
77.975035,-5800.201982,-1378.265818,7829.315547
77.975659,-6910.471669,-1320.838075,9073.583299
77.976282,-7599.604578,-210.568389,10566.704602
77.976906,-7331.608446,727.418070,12404.392358
77.977529,-7235.895542,1205.982590,13648.660110
77.978152,-6738.188442,957.129040,12959.527202
77.978776,-5915.057467,287.138712,10872.985894
77.979399,-4498.506488,-478.564520,9150.153622
77.980023,-3866.801322,-306.281293,8097.311678
77.980646,-4421.936165,-133.998066,8441.878133
77.981270,-4766.502619,19.142581,8480.163294
77.981893,-4728.217458,-306.281293,8020.741355
77.982516,-4134.797453,-363.709035,7427.321350
77.983140,-3311.666478,-57.427742,7446.463931
77.983763,-2890.529701,669.990328,8556.733618
77.984387,-2660.818731,1129.412267,10432.706536
77.985010,-1588.834206,593.420005,11944.970419
77.985633,-248.853550,76.570323,13036.097525
77.986257,2813.959378,-1052.841944,13055.240106
77.986880,5991.627790,-1359.123237,11964.113000
77.987504,8537.591037,-784.845813,9973.284597
77.988127,9322.436850,478.564520,8154.739421
77.988750,8059.026517,2086.541307,7446.463931
77.989374,6049.055533,2660.818731,7829.315547
77.989997,5532.205851,2143.969050,8250.452325
77.990620,6259.623922,1167.697429,8499.305875
77.991244,7006.184573,669.990328,8403.592971
77.991867,6431.907149,669.990328,9035.298138
77.992490,5187.639397,344.566454,11102.696864
77.993114,4077.369710,-248.853550,12882.956878
77.993737,3828.516160,-746.560651,13170.095590
77.994361,4211.367776,-612.562586,12174.681389
77.994984,5264.209720,-363.709035,10662.417506
77.995607,5034.498750,555.134843,9992.427178
77.996231,4268.795518,880.558717,9322.436850
77.996854,2354.537438,1263.410333,8422.735552
77.997477,38.285162,899.701298,7695.317482
77.998101,-2029.113565,-153.140646,7255.038123
77.998724,-4383.651003,-1071.984525,7408.178770
77.999347,-6049.055533,-1339.980656,7925.028451
77.999971,-7044.469734,-995.414202,9131.011042
78.000594,-7771.887805,325.423874,10834.700733
78.001218,-7216.752962,1014.556782,12672.388490
78.001841,-7121.040058,1186.840010,13667.802691
78.002464,-6680.760699,823.130974,12691.531070
78.003088,-5800.201982,-191.425808,10490.134278
78.003711,-4613.361973,-842.273555,8939.585234
78.004334,-3981.656806,-478.564520,8059.026517
78.004958,-4479.363907,-95.712904,8480.163294
78.005581,-4785.645200,172.283227,8556.733618
78.006204,-4575.076811,-95.712904,7944.171032
78.006828,-4039.084549,-267.996131,7465.606512
78.007451,-3445.664544,114.855485,7637.889739
78.008075,-2909.672282,555.134843,8709.874264
78.008698,-2507.678085,976.271621,10566.704602
78.009321,-1244.267752,401.994197,12021.540742
78.009945,306.281293,19.142581,12997.812363
78.010568,3139.383251,-1033.699363,12959.527202
78.011191,6393.621987,-1205.982590,11753.544611
78.011815,8614.161360,-574.277424,9743.573627
78.012438,9188.438784,784.845813,7925.028451
78.013061,7810.172966,2239.681954,7331.608446
78.013685,5934.200048,2526.820666,8039.883936
78.014308,5876.772306,1895.115499,8327.022648
78.014931,6470.192310,1014.556782,8480.163294
78.015555,6987.041992,689.132909,8518.448456
78.016178,6259.623922,612.562586,9150.153622
78.016802,4881.358104,172.283227,11294.122672
78.017425,3885.943902,-191.425808,12902.099459
78.018048,3943.371645,-746.560651,13016.954944
78.018672,4402.793584,-478.564520,12040.683323
78.019295,5398.207786,-210.568389,10662.417506
78.019918,5168.496816,363.709035,9934.999435
78.020542,3962.514226,918.843878,9322.436850
78.021165,2029.113565,1148.554848,8193.024582
78.021788,-401.994197,861.416136,7561.319416
78.022412,-2565.105827,-191.425808,7369.893608
78.023035,-4728.217458,-918.843878,7618.747158
78.023659,-6202.196179,-1167.697429,8154.739421
78.024282,-7082.754896,-727.418070,9399.007173
78.024905,-7733.602643,344.566454,11006.983960
78.025529,-7350.751027,803.988394,12825.529136
78.026152,-7178.467800,976.271621,13533.804626
78.026775,-6738.188442,612.562586,12404.392358
78.027399,-5321.637462,-287.138712,10183.852986
78.028022,-4307.080680,-555.134843,8767.302006
78.028645,-3809.373579,-133.998066,8346.165229
78.029269,-4479.363907,-114.855485,8537.591037
78.029892,-4881.358104,76.570323,8575.876198
78.030516,-4517.649069,-382.851616,7752.745224
78.031139,-3924.229064,-555.134843,7331.608446
78.031762,-3503.092286,133.998066,7829.315547
78.032386,-2718.246474,631.705166,9054.440718
78.033009,-2469.392923,1033.699363,10738.987829
78.033632,-1129.412267,478.564520,12232.109131
78.034256,708.275490,-248.853550,13055.240106
78.034879,3656.232933,-1052.841944,12825.529136
78.035502,7044.469734,-1186.840010,11408.978157
78.036126,8958.727814,-401.994197,9571.290400
78.036749,9322.436850,1129.412267,7791.030386
78.037373,7676.174901,2335.394858,7446.463931
78.037996,5742.774240,2565.105827,8193.024582
78.038619,6010.770371,1780.260014,8288.737486
78.039243,6412.764568,880.558717,8365.307810
78.039866,6623.332957,784.845813,8518.448456
78.040489,6029.912952,612.562586,9456.434915
78.041113,4670.789715,-38.285162,11657.831707
78.041736,3905.086483,-267.996131,13074.382686
78.042359,4307.080680,-918.843878,12768.101394
78.042983,4632.504554,-440.279358,11791.829773
78.043606,5321.637462,-76.570323,10547.562021
78.044230,4957.928427,497.707101,9705.288466
78.044853,3369.094221,1129.412267,9303.294269
78.045476,1780.260014,1071.984525,8154.739421
78.046100,-784.845813,689.132909,7465.606512
78.046723,-2871.387120,-478.564520,7255.038123
78.047346,-4977.071008,-1071.984525,7408.178770
78.047970,-6642.475538,-1263.410333,8250.452325
78.048593,-7427.321350,-440.279358,9667.003304
78.049216,-7752.745224,382.851616,11370.692995
78.049840,-7331.608446,957.129040,13074.382686
78.050463,-7006.184573,976.271621,13380.663979
78.051086,-6546.762634,478.564520,12174.681389
78.051710,-4900.500685,-497.707101,9954.142016
78.052333,-4173.082614,-574.277424,8575.876198
78.052957,-4096.512291,-114.855485,8327.022648
78.053580,-4709.074877,19.142581,8537.591037
78.054203,-4996.213589,-19.142581,8499.305875
78.054827,-4479.363907,-172.283227,7676.174901
78.055450,-3713.660675,-401.994197,7235.895542
78.056073,-3503.092286,325.423874,7982.456194
78.056697,-2679.961312,650.847747,9341.579430
78.057320,-2163.111630,765.703232,10987.841379
78.057943,-784.845813,306.281293,12557.533005
78.058567,1512.263883,-382.851616,13074.382686
78.059190,4421.936165,-957.129040,12729.816232
78.059814,7695.317482,-1014.556782,11083.554283
78.060437,9245.866526,-95.712904,9245.866526
78.061060,9016.155557,1359.123237,7657.032320
78.061684,7159.325219,2277.967115,7484.749093
78.062307,5302.494882,2297.109696,8269.594906
78.062930,5857.629725,1378.265818,8422.735552
78.063554,6623.332957,803.988394,8269.594906
78.064177,6661.618118,937.986459,8595.018779
78.064800,6068.198114,823.130974,9820.143950
78.065424,4804.787781,76.570323,12098.111066
78.066047,3905.086483,-421.136778,13323.236237
78.066671,4230.510357,-995.414202,12576.675586
78.067294,4843.072942,-823.130974,11389.835576
78.067917,5187.639397,-57.427742,10336.993632
78.068541,4938.785846,574.277424,9609.575562
78.069164,3101.098090,1397.408398,9226.723946
78.069787,1225.125171,1225.125171,8116.454259
78.070411,-1378.265818,631.705166,7389.036189
78.071034,-3656.232933,-727.418070,7312.465866
78.071657,-5436.492947,-1320.838075,7446.463931
78.072281,-6853.043926,-1397.408398,8422.735552
78.072904,-7446.463931,-344.566454,9992.427178
78.073528,-7408.178770,746.560651,11849.257515
78.074151,-7255.038123,1244.267752,13591.232368
78.074774,-6776.473603,1071.984525,13380.663979
78.075398,-6355.336826,382.851616,11676.974288
78.076021,-4594.219392,-650.847747,9437.292334
78.076644,-4058.227130,-555.134843,8231.309744
78.077268,-4421.936165,-172.283227,8441.878133
78.077891,-4881.358104,-19.142581,8652.446522
78.078514,-5091.926493,-95.712904,8480.163294
78.079138,-4498.506488,-248.853550,7637.889739
78.079761,-3464.807125,-267.996131,7293.323285
78.080385,-3196.810994,478.564520,8097.311678
78.081008,-2660.818731,918.843878,9628.718142
78.081631,-1837.687757,765.703232,11294.122672
78.082255,-440.279358,363.709035,12863.814298
78.082878,2220.539373,-631.705166,13246.665914
78.083501,5283.352301,-1225.125171,12500.105262
78.084125,8307.880067,-995.414202,10585.847182
78.084748,9341.579430,133.998066,8729.016845
78.085372,8499.305875,1741.974853,7523.034254
78.085995,6431.907149,2526.820666,7580.461997
78.086618,5187.639397,2354.537438,8346.165229
78.087242,5895.914886,1378.265818,8595.018779
78.087865,6987.041992,784.845813,8307.880067
78.088489,6776.473603,765.703232,8709.874264
78.089112,5819.344563,555.134843,10375.278794
78.089736,4555.934230,-267.996131,12423.534939
78.090359,3905.086483,-650.847747,13208.380752
78.090983,4287.938099,-708.275490,12366.107197
78.091606,5187.639397,-593.420005,10892.128475
78.092230,5091.926493,325.423874,10145.567824
78.092853,4594.219392,708.275490,9552.147819
78.093477,2603.390989,1282.552914,8863.014910
78.094100,459.421939,1052.841944,7925.028451
78.094723,-1914.258080,210.568389,7255.038123
78.095347,-4192.225195,-918.843878,7312.465866
78.095970,-5761.916821,-1263.410333,7676.174901
78.096594,-6833.901346,-1148.554848,8805.587168
78.097217,-7637.889739,0.000000,10317.851051
78.097841,-7293.323285,861.416136,12155.538808
78.098464,-7178.467800,1091.127106,13552.947206
78.099088,-6642.475538,784.845813,13036.097525
78.099711,-5915.057467,0.000000,10949.556218
78.100335,-4632.504554,-650.847747,9169.296203
78.100958,-4192.225195,-267.996131,8173.882002
78.101582,-4785.645200,-38.285162,8614.161360
78.102205,-5206.781978,76.570323,8709.874264
78.102828,-4919.643266,-248.853550,8288.737486
78.103452,-4173.082614,-363.709035,7484.749093
78.104075,-3311.666478,-191.425808,7350.751027
78.104699,-2833.101958,516.849682,8403.592971
78.105322,-2584.248408,1014.556782,10164.710405
78.105946,-1378.265818,574.277424,11619.546546
78.106569,-38.285162,153.140646,12940.384621
78.107193,2986.242605,-899.701298,13036.097525
78.107816,6106.483275,-1167.697429,12136.396227
78.108440,8537.591037,-708.275490,10183.852986
78.109063,9379.864592,516.849682,8307.880067
78.109687,8020.741355,2029.113565,7503.891674
78.110310,6029.912952,2584.248408,8001.598774
78.110934,5379.065205,2048.256146,8327.022648
78.111557,6087.340694,1052.841944,8575.876198
78.112180,7063.612315,631.705166,8403.592971
78.112804,6623.332957,689.132909,8882.157491
78.113427,5455.635528,382.851616,10853.843314
78.114051,4173.082614,-38.285162,12729.816232
78.114674,4019.941968,-784.845813,13093.525267
78.115298,4326.223261,-555.134843,12059.825904
78.115921,5283.352301,-421.136778,10700.702667
78.116545,5015.356170,421.136778,10030.712339
78.117168,4058.227130,880.558717,9552.147819
78.117792,2239.681954,1244.267752,8575.876198
78.118415,-191.425808,937.986459,7791.030386
78.119039,-2507.678085,19.142581,7274.180704
78.119662,-4747.360038,-899.701298,7331.608446
78.120285,-6259.623922,-1301.695494,7867.600709
78.120909,-7082.754896,-1052.841944,9188.438784
78.121532,-7580.461997,76.570323,10834.700733
78.122156,-7044.469734,784.845813,12614.960747
78.122779,-6891.329088,1033.699363,13457.234302
78.123403,-6489.334891,650.847747,12557.533005
78.124026,-5436.492947,-229.710970,10375.278794
78.124650,-4575.076811,-535.992262,8863.014910
78.125273,-4326.223261,-95.712904,8212.167163
78.125897,-5015.356170,-57.427742,8729.016845
78.126520,-5130.211654,-57.427742,8767.302006
78.127144,-4575.076811,-459.421939,7944.171032
78.127767,-3732.803256,-535.992262,7331.608446
78.128390,-3311.666478,114.855485,7676.174901
78.129014,-2813.959378,727.418070,8805.587168
78.129637,-2603.390989,1225.125171,10643.274925
78.130261,-1148.554848,421.136778,12040.683323
78.130884,803.988394,-153.140646,12940.384621
78.131508,3732.803256,-1071.984525,12844.671717
78.132131,6948.756830,-1263.410333,11562.118803
78.132755,8863.014910,-516.849682,9705.288466
78.133378,9207.581365,1014.556782,7944.171032
78.134002,7523.034254,2354.537438,7580.461997
78.134625,5513.063270,2603.390989,8173.882002
78.135249,5570.491013,1799.402595,8384.450390
78.135872,6221.338760,918.843878,8518.448456
78.136496,6891.329088,650.847747,8441.878133
78.137119,6489.334891,669.990328,9245.866526
78.137742,5264.209720,57.427742,11562.118803
78.138366,4192.225195,-229.710970,12997.812363
78.138989,4307.080680,-861.416136,12768.101394
78.139613,4670.789715,-516.849682,11696.116869
78.140236,5283.352301,-153.140646,10490.134278
78.140860,4996.213589,555.134843,9820.143950
78.141483,3292.523898,1148.554848,9475.577496
78.142107,1531.406464,1167.697429,8307.880067
78.142730,-995.414202,631.705166,7580.461997
78.143354,-3043.670347,-574.277424,7389.036189
78.143977,-5034.498750,-1205.982590,7408.178770
78.144601,-6508.477472,-1320.838075,8116.454259
78.145224,-7255.038123,-535.992262,9533.005238
78.145847,-7523.034254,535.992262,11294.122672
78.146471,-7159.325219,1033.699363,13093.525267
78.147094,-6853.043926,1129.412267,13304.093656
78.147718,-6546.762634,459.421939,12040.683323
78.148341,-5034.498750,-535.992262,9858.429112
78.148965,-4345.365842,-631.705166,8499.305875
78.149588,-4364.508422,-133.998066,8365.307810
78.150212,-4843.072942,-38.285162,8652.446522
78.150835,-5091.926493,0.000000,8709.874264
78.151459,-4555.934230,-172.283227,7848.458128
78.152082,-3617.947771,-344.566454,7312.465866
78.152706,-3369.094221,325.423874,8001.598774
78.153329,-2545.963246,612.562586,9131.011042
78.153952,-2067.398726,784.845813,10815.558152
78.154576,-669.990328,325.423874,12423.534939
78.155199,1627.119368,-363.709035,13112.667848
78.155823,4651.647134,-976.271621,12748.958813
78.156446,7829.315547,-976.271621,11083.554283
78.157070,9226.723946,-38.285162,9131.011042
78.157693,8786.444587,1473.978722,7580.461997
78.158317,6987.041992,2373.680019,7580.461997
78.158940,5187.639397,2335.394858,8288.737486
78.159564,5742.774240,1378.265818,8614.161360
78.160187,6757.331022,708.275490,8327.022648
78.160811,6833.901346,784.845813,8537.591037
78.161434,6183.053598,669.990328,9858.429112
78.162058,4804.787781,-114.855485,12098.111066
78.162681,3905.086483,-401.994197,13150.953010
78.163304,4268.795518,-784.845813,12442.677520
78.163928,5111.069074,-631.705166,11198.409768
78.164551,5072.783912,248.853550,10451.849117
78.165175,4785.645200,631.705166,9781.858789
78.165798,2813.959378,1282.552914,9265.009107
78.166422,918.843878,957.129040,8116.454259
78.167045,-1569.691626,421.136778,7350.751027
78.167669,-3905.086483,-631.705166,7235.895542
78.168292,-5666.203917,-1148.554848,7561.319416
78.168916,-6814.758765,-1263.410333,8575.876198
78.169539,-7427.321350,-267.996131,9973.284597
78.170163,-7255.038123,727.418070,11791.829773
78.170786,-7159.325219,995.414202,13342.378818
78.171409,-6642.475538,823.130974,13131.810429
78.172033,-6125.625856,172.283227,11332.407834
78.172656,-4575.076811,-689.132909,9456.434915
78.173280,-4211.367776,-325.423874,8327.022648
78.173903,-4747.360038,19.142581,8633.303941
78.174527,-5187.639397,76.570323,8767.302006
78.175150,-5072.783912,-229.710970,8441.878133
78.175774,-4364.508422,-401.994197,7637.889739
78.176397,-3330.809059,-363.709035,7312.465866
78.177021,-3081.955509,401.994197,8193.024582
78.177644,-2679.961312,937.986459,9915.856854
78.178268,-1588.834206,746.560651,11236.694930
78.178891,-172.283227,306.281293,12729.816232
78.179514,2660.818731,-708.275490,13055.240106
78.180138,5647.061336,-1225.125171,12366.107197
78.180761,8346.165229,-899.701298,10528.419440
78.181385,9437.292334,306.281293,8537.591037
78.182008,8365.307810,1818.545176,7503.891674
78.182632,6355.336826,2584.248408,7829.315547
78.183255,5283.352301,2220.539373,8365.307810
78.183879,5895.914886,1263.410333,8556.733618
78.184502,6833.901346,650.847747,8346.165229
78.185126,6719.045861,555.134843,8729.016845
78.185749,5838.487144,306.281293,10643.274925
78.186373,4575.076811,-172.283227,12519.247843
78.186996,4115.654872,-650.847747,13093.525267
78.187620,4249.652938,-497.707101,12232.109131
78.188243,5264.209720,-459.421939,10949.556218
78.188866,4938.785846,440.279358,10298.708470
78.189490,4249.652938,727.418070,9724.431046
78.190113,2354.537438,1263.410333,8748.159426
78.190737,57.427742,918.843878,7905.885870
78.191361,-2258.824534,95.712904,7350.751027
78.191984,-4613.361973,-918.843878,7369.893608
78.192608,-6125.625856,-1263.410333,7752.745224
78.193231,-7063.612315,-1052.841944,8824.729749
78.193855,-7733.602643,95.712904,10470.991698
78.194478,-7159.325219,803.988394,12385.249778
78.195102,-6948.756830,995.414202,13438.091722
78.195725,-6393.621987,708.275490,12729.816232
78.196349,-5551.348432,-76.570323,10643.274925
78.196972,-4517.649069,-459.421939,9016.155557
78.197596,-4307.080680,-133.998066,8346.165229
78.198220,-5015.356170,-153.140646,8729.016845
78.198843,-5245.067139,-57.427742,8843.872330
78.199467,-4804.787781,-459.421939,8059.026517
78.200090,-4077.369710,-440.279358,7427.321350
78.200714,-3349.951640,0.000000,7523.034254
78.201337,-2679.961312,574.277424,8614.161360
78.201961,-2526.820666,1129.412267,10356.136213
78.202584,-1129.412267,497.707101,11830.114934
78.203208,650.847747,0.000000,12806.386555
78.203831,3675.375514,-957.129040,12863.814298
78.204455,6891.329088,-1205.982590,11791.829773
78.205079,8920.442653,-650.847747,9973.284597
78.205702,9245.866526,880.558717,8078.169098
78.206326,7752.745224,2297.109696,7446.463931
78.206949,5685.346498,2603.390989,8020.741355
78.207573,5551.348432,1818.545176,8422.735552
78.208196,6068.198114,918.843878,8441.878133
78.208820,6872.186507,631.705166,8422.735552
78.209443,6527.620053,669.990328,9111.868461
78.210067,5359.922624,76.570323,11313.265253
78.210691,4268.795518,-172.283227,12921.242040
78.211314,4287.938099,-823.130974,12787.243974
78.211938,4517.649069,-497.707101,11849.257515
78.212561,5283.352301,-114.855485,10662.417506
78.213185,5111.069074,535.992262,10030.712339
78.213808,3541.377448,1033.699363,9667.003304
78.214432,1799.402595,1071.984525,8403.592971
78.215055,-937.986459,689.132909,7542.176835
78.215679,-3369.094221,-210.568389,7293.323285
78.216302,-5379.065205,-937.986459,7389.036189
78.216926,-6757.331022,-1301.695494,8116.454259
78.217550,-7216.752962,-727.418070,9437.292334
78.218173,-7465.606512,287.138712,11102.696864
78.218797,-7025.327154,784.845813,12806.386555
78.219420,-6661.618118,957.129040,13265.808494
78.220044,-6317.051664,574.277424,12155.538808
78.220667,-4881.358104,-344.566454,10088.140082
78.221291,-4345.365842,-363.709035,8671.589102
78.221914,-4498.506488,-19.142581,8461.020714
78.222538,-5264.209720,-57.427742,8786.444587
78.223161,-5264.209720,-229.710970,8690.731683
78.223785,-4613.361973,-459.421939,7714.460062
78.224409,-3541.377448,-516.849682,7235.895542
78.225032,-3311.666478,325.423874,7886.743290
78.225656,-2699.103893,708.275490,9226.723946
78.226279,-2143.969050,918.843878,10796.415571
78.226903,-631.705166,344.566454,12404.392358
78.227526,1971.685822,-459.421939,13016.954944
78.228150,4919.643266,-1052.841944,12691.531070
78.228773,7944.171032,-1033.699363,11083.554283
78.229397,9150.153622,-76.570323,9265.009107
78.230020,8767.302006,1416.550979,7714.460062
78.230644,6948.756830,2469.392923,7580.461997
78.231268,5053.641331,2469.392923,8212.167163
78.231891,5608.776174,1569.691626,8518.448456
78.232515,6470.192310,765.703232,8288.737486
78.233138,6833.901346,823.130974,8537.591037
78.233762,6393.621987,535.992262,9877.571693
78.234385,5072.783912,-229.710970,12078.968485
78.235009,4211.367776,-516.849682,13093.525267
78.235632,4364.508422,-746.560651,12423.534939
78.236256,5206.781978,-593.420005,11236.694930
78.236879,5149.354235,229.710970,10604.989763
78.237503,4709.074877,708.275490,9896.714274
78.238127,2603.390989,1301.695494,9284.151688
78.238750,612.562586,880.558717,8078.169098
78.239374,-1837.687757,325.423874,7255.038123
78.239997,-4096.512291,-823.130974,7197.610381
78.240621,-5685.346498,-1091.127106,7618.747158
78.241244,-6929.614250,-1091.127106,8575.876198
78.241868,-7503.891674,-133.998066,9954.142016
78.242491,-7255.038123,708.275490,11810.972354
78.243115,-6910.471669,937.986459,13284.951075
78.243739,-6297.909083,765.703232,13016.954944
78.244362,-5838.487144,172.283227,11274.980091
78.244986,-4594.219392,-555.134843,9399.007173
78.245609,-4575.076811,-191.425808,8403.592971
78.246233,-5130.211654,19.142581,8786.444587
78.246856,-5417.350366,19.142581,8863.014910
78.247480,-5015.356170,-382.851616,8384.450390
78.248103,-4192.225195,-382.851616,7503.891674
78.248727,-3330.809059,-306.281293,7216.752962
78.249350,-3062.812928,478.564520,8307.880067
78.249974,-2641.676150,937.986459,10068.997501
78.250598,-1359.123237,574.277424,11408.978157
78.251221,153.140646,191.425808,12672.388490
78.251845,3196.810994,-765.703232,12863.814298
78.252468,6144.768437,-1071.984525,12155.538808
78.253092,8499.305875,-784.845813,10394.421374
78.253715,9207.581365,497.707101,8595.018779
78.254339,8020.741355,1875.972918,7561.319416
78.254962,6068.198114,2545.963246,7886.743290
78.255586,5168.496816,2086.541307,8288.737486
78.256209,5551.348432,1148.554848,8556.733618
78.256833,6814.758765,708.275490,8288.737486
78.257457,6967.899411,746.560651,8748.159426
78.258080,6221.338760,459.421939,10777.272990
78.258704,4862.215523,-57.427742,12672.388490
78.259327,4383.651003,-823.130974,13016.954944
78.259951,4249.652938,-689.132909,12078.968485
78.260574,5091.926493,-516.849682,10758.130410
78.261198,4938.785846,306.281293,10202.995566
78.261821,4058.227130,976.271621,9820.143950
78.262445,2201.396792,1454.836141,8824.729749
78.263068,-440.279358,1129.412267,7829.315547
78.263692,-2947.957443,57.427742,7293.323285
78.264316,-5111.069074,-1129.412267,7293.323285
78.264939,-6336.194245,-1627.119368,7810.172966
78.265563,-6833.901346,-1282.552914,8939.585234
78.266186,-7408.178770,38.285162,10490.134278
78.266810,-6948.756830,1091.127106,12442.677520
78.267433,-6853.043926,1378.265818,13514.662045
78.268057,-6355.336826,957.129040,12653.245909
78.268680,-5245.067139,-95.712904,10356.136213
78.269304,-4594.219392,-689.132909,8767.302006
78.269928,-4651.647134,-363.709035,8269.594906
78.270551,-5436.492947,-306.281293,8843.872330
78.271175,-5455.635528,-267.996131,9016.155557
78.271798,-4785.645200,-382.851616,8231.309744
78.272422,-3828.516160,-248.853550,7465.606512
78.273045,-3273.381317,344.566454,7695.317482
78.273669,-2565.105827,727.418070,8729.016845
78.274292,-2373.680019,1091.127106,10394.421374
